timestamp(ms),CTUN.ThO,ARSP[0].Airspeed,CTUN.As,ARSP[0].DiffPress,ARSP[0].Temp,ATT.Pitch,ATT.Roll,RCOU.C3,RCOU.C11,AOA.AOA,IMU[0].AccX,IMU[0].AccZ
346489.01797164755,91.31212615966797,13.612818717956543,14.544032096862793,117.80599975585938,25.75,7.604784965515137,-4.582517147064209,1481,1744,13.174896240234375,3.9872679710388184,-21.970365524291992
346589.01797164755,91.4216537475586,13.009821891784668,14.101306915283203,107.60043334960938,25.75,12.492654800415039,-4.309621810913086,1480,1692,12.710987091064453,4.4117631912231445,-23.429840087890625
346689.01797164755,91.59457397460938,13.085931777954102,13.80453872680664,108.86306762695312,25.75,14.824996948242188,-3.787160873413086,1484,1655,11.131546020507812,4.001760005950928,-21.50041389465332
346789.01797164755,91.5848617553711,13.533564567565918,13.723808288574219,116.43826293945312,25.75,17.31671714782715,-3.1269514560699463,1478,1593,8.945646286010742,3.6870481967926025,-20.988876342773438
346889.01797164755,91.6673812866211,14.002363204956055,13.807965278625488,124.64474487304688,25.75,17.988834381103516,-2.7335686683654785,1478,1560,6.574641704559326,2.543623685836792,-16.924510955810547
346989.01797164755,91.35687255859375,14.867045402526855,14.134024620056152,140.51434326171875,25.75,17.77155303955078,-2.209604024887085,1479,1502,4.169063091278076,2.126779317855835,-14.800711631774902
347089.01797164755,90.69020080566406,15.028511047363281,14.408202171325684,143.58306884765625,25.75,16.828933715820312,-1.714423656463623,1484,1484,1.6193654537200928,1.812085509300232,-12.157397270202637
347189.01797164755,87.9979476928711,14.996355056762695,14.587138175964355,142.96926879882812,25.75,13.982236862182617,-0.6015801429748535,1501,1473,-0.647283673286438,1.4313162565231323,-8.959142684936523
347289.01797164755,87.3312759399414,15.24716567993164,14.788240432739258,147.79153442382812,25.75,11.20966625213623,0.18396680057048798,1514,1491,-2.8583085536956787,1.1815158128738403,-5.407144069671631
347389.01797164755,82.82662963867188,15.247162818908691,14.927398681640625,147.79147338867188,25.75,5.986856937408447,1.2697629928588867,1534,1562,-4.4477033615112305,1.0463112592697144,-2.039464235305786
347489.01797164755,82.1256103515625,14.323710441589355,14.748886108398438,130.43145751953125,25.75,2.000192165374756,1.8107728958129883,1542,1612,-5.558369159698486,0.7524531483650208,0.47349467873573303
347589.01797164755,78.4765853881836,14.82059383392334,14.770435333251953,139.63763427734375,25.75,-3.3890273571014404,1.8767775297164917,1541,1697,-5.669819355010986,0.7057456374168396,2.6517364978790283
347689.01797164755,77.8099136352539,14.421586036682129,14.666651725769043,132.22006225585938,25.69,-6.162224292755127,1.560618281364441,1542,1742,-4.573673725128174,0.3894211947917938,2.632143974304199
347789.01797164755,77.68317413330078,14.967820167541504,14.757648468017578,142.42572021484375,25.65,-8.80070686340332,1.6738675832748413,1549,1804,-2.3595685958862305,-0.15029945969581604,1.2684698104858398
347889.01797164755,78.34984588623047,14.701464653015137,14.740815162658691,137.40182495117188,25.65,-9.239041328430176,1.844698429107666,1551,1821,0.18084511160850525,-0.22760899364948273,-2.2721760272979736
347989.01797164755,81.05044555664062,14.590821266174316,14.695978164672852,135.3414306640625,25.65,-7.933723449707031,2.0065605640411377,1554,1836,3.1833598613739014,0.021741867065429688,-5.452042102813721
348089.01797164755,81.71711730957031,14.778658866882324,14.720831871032715,138.84854125976562,25.65,-5.806696891784668,1.7714042663574219,1551,1827,6.02364444732666,0.3324052393436432,-9.34965705871582
348189.01797164755,85.38199615478516,14.62669563293457,14.69265365600586,136.00778198242188,25.65,-1.2247506380081177,1.0023529529571533,1542,1796,8.700230598449707,1.3318798542022705,-13.941147804260254
348289.01797164755,86.04866790771484,14.575689315795898,14.657662391662598,135.06085205078125,25.65,2.541210412979126,0.24861697852611542,1532,1765,10.877197265625,1.9292539358139038,-17.480905532836914
348389.01797164755,87.91790008544922,13.726320266723633,14.38459300994873,119.7786865234375,25.65,8.518594741821289,-1.1858582496643066,1509,1714,12.24733829498291,3.2180564403533936,-20.608062744140625
348489.01797164755,88.08873748779297,12.952451705932617,13.97037410736084,106.65353393554688,25.65,11.940463066101074,-1.9596610069274902,1500,1675,12.31407356262207,4.240541934967041,-21.44784927368164
348589.01797164755,87.85696411132812,12.04544448852539,13.421914100646973,92.239501953125,25.65,15.649060249328613,-2.155932903289795,1493,1628,10.749465942382812,4.348307132720947,-23.07632064819336
348689.01797164755,87.74358367919922,12.364104270935059,13.113533973693848,97.18441772460938,25.65,16.930429458618164,-2.130608558654785,1485,1600,7.98237419128418,3.9185140132904053,-20.38705825805664
348789.01797164755,87.6712417602539,13.14901351928711,13.124187469482422,109.9151611328125,25.65,17.082874298095703,-1.8671594858169556,1484,1535,4.704989433288574,3.399893283843994,-17.387107849121094
348889.01797164755,87.00457000732422,13.15530014038086,13.133529663085938,110.02029418945312,25.65,16.420167922973633,-1.2462493181228638,1487,1521,1.629449725151062,3.2805440425872803,-13.34326457977295
348989.01797164755,86.20369720458984,14.04956340789795,13.414908409118652,125.48648071289062,25.65,13.916682243347168,-1.367857813835144,1479,1487,0.015445164404809697,1.9368340969085693,-6.3695855140686035
349089.01797164755,85.87761688232422,14.541586875915527,13.76259994506836,134.42959594726562,25.65,11.496894836425781,-1.0996530055999756,1497,1486,-0.7223344445228577,1.684756875038147,-4.140328407287598
349189.01797164755,84.27024841308594,14.061333656311035,13.852896690368652,125.69683837890625,25.65,7.214380264282227,0.45128193497657776,1532,1540,-2.3451004028320312,1.958213210105896,-5.104092597961426
349289.01797164755,83.60357666015625,13.895581245422363,13.865715980529785,122.75091552734375,25.65,3.693796396255493,1.8251986503601074,1555,1610,-3.215183973312378,2.108508348464966,-0.5658841133117676
349389.01797164755,81.01667022705078,14.143486022949219,13.949627876281738,127.16986083984375,25.65,-1.3559110164642334,3.107419490814209,1571,1685,-3.8787710666656494,1.3101816177368164,-0.24597059190273285
349489.01797164755,80.52725982666016,14.358331680297852,14.073485374450684,131.062744140625,25.65,-4.024043083190918,2.9693641662597656,1572,1727,-3.3280699253082275,0.6504973769187927,1.6531322002410889
349589.01797164755,81.16889953613281,15.023003578186035,14.364933013916016,143.47784423828125,25.55,-6.557218074798584,2.4961166381835938,1571,1780,-1.145674467086792,0.011639569886028767,2.2881665229797363
349689.01797164755,81.8355712890625,15.077981948852539,14.58250904083252,144.5299072265625,25.59,-7.252091884613037,2.2902050018310547,1574,1793,0.0738634392619133,0.5172260999679565,-2.53843355178833
349789.01797164755,83.4076156616211,14.541582107543945,14.570243835449219,134.42950439453125,25.62,-6.385496616363525,1.3039953708648682,1553,1821,2.8722429275512695,0.3543832004070282,-4.583059310913086
349889.01797164755,84.07428741455078,14.59837818145752,14.578689575195312,135.48165893554688,25.57,-4.717441082000732,0.2865141034126282,1539,1813,5.372536659240723,0.518510103225708,-9.166510581970215
349989.01797164755,86.78654479980469,14.856841087341309,14.662688255310059,140.32150268554688,25.65,-1.0465227365493774,-1.2020258903503418,1523,1788,7.846346855163574,0.9568975567817688,-12.60356616973877
350089.01797164755,87.45321655273438,14.700057029724121,14.673909187316895,137.37551879882812,25.55,2.019136667251587,-2.107914686203003,1507,1759,10.34418773651123,1.9149736166000366,-14.933701515197754
350189.01797164755,88.7142562866211,13.889625549316406,14.443097114562988,122.64572143554688,25.55,7.288183689117432,-3.9732983112335205,1476,1721,12.115490913391113,3.8254666328430176,-20.47909164428711
350289.01797164755,88.27578735351562,13.022537231445312,14.032037734985352,107.81085205078125,25.55,10.45616340637207,-4.861281394958496,1461,1694,12.15782642364502,4.148676872253418,-21.9729061126709
350389.01797164755,88.15435028076172,12.952457427978516,13.717087745666504,106.65362548828125,25.55,13.758530616760254,-5.139596462249756,1449,1644,10.951942443847656,3.540799856185913,-20.942251205444336
350489.01797164755,88.0781021118164,12.437505722045898,13.346100807189941,98.34173583984375,25.55,15.164323806762695,-5.073392391204834,1439,1618,9.05206298828125,3.2740478515625,-19.511863708496094
350589.01797164755,87.8653564453125,12.746376037597656,13.169051170349121,103.28677368164062,25.55,16.15329360961914,-4.372624397277832,1439,1542,6.691450595855713,3.5001068115234375,-16.700733184814453
350689.01797164755,87.2953872680664,13.533561706542969,13.279455184936523,116.43820190429688,25.55,16.12888526916504,-4.003899574279785,1432,1511,4.206894874572754,3.2287943363189697,-14.310032844543457
350789.01797164755,86.3510513305664,13.447688102722168,13.330147743225098,114.96524047851562,25.55,14.877967834472656,-3.613769292831421,1433,1480,2.0256824493408203,2.6457464694976807,-11.829516410827637
350889.01797164755,85.68437957763672,14.055450439453125,13.551815032958984,125.5916748046875,25.55,13.17481803894043,-2.097809076309204,1471,1485,-0.20119249820709229,2.00606632232666,-8.538459777832031
350989.01797164755,84.07948303222656,14.236791610717773,13.760889053344727,128.85330200195312,25.55,9.331250190734863,1.3970370292663574,1531,1508,-1.8881980180740354,1.4759796857833862,-4.437585353851318
351089.01797164755,83.41281127929688,13.919379234313965,13.808627128601074,123.17172241210938,25.55,5.952192783355713,2.9595251083374023,1547,1547,-3.1790099143981934,1.3707917928695679,-2.5361361503601074
351189.01797164755,81.26777648925781,14.084856986999512,13.892072677612305,126.11773681640625,25.55,0.27329838275909424,3.6933534145355225,1561,1640,-4.408429145812988,1.3437949419021606,-0.238615944981575
351289.01797164755,80.60110473632812,14.143484115600586,13.967970848083496,127.16983032226562,25.55,-3.2435190677642822,3.814211845397949,1569,1689,-5.1811909675598145,1.3660911321640015,2.1237595081329346
351389.01797164755,79.58475494384766,14.694427490234375,14.189813613891602,137.27032470703125,25.55,-7.236241817474365,4.503891944885254,1589,1775,-4.399031639099121,0.7202619910240173,2.5068204402923584
351489.01797164755,80.25142669677734,14.604049682617188,14.315342903137207,135.58694458007812,25.55,-8.758381843566895,4.705142974853516,1587,1806,-2.6438512802124023,-0.5454320311546326,-1.3566653728485107
351589.01797164755,81.62691497802734,14.906882286071777,14.495340347290039,141.26837158203125,25.55,-8.88925552368164,4.472923278808594,1590,1830,-1.0516738891601562,-0.13746677339076996,-1.9810190200805664
351689.01797164755,82.29358673095703,14.688793182373047,14.553646087646484,137.16506958007812,25.52,-7.843672752380371,4.3275580406188965,1590,1827,1.5584548711776733,0.2907802164554596,-6.3076910972595215
351789.01797164755,84.71177673339844,14.694427490234375,14.596023559570312,137.27032470703125,25.46,-4.694331645965576,3.0594730377197266,1570,1814,4.525145053863525,0.4960680902004242,-9.850016593933105
351889.01797164755,85.37844848632812,14.812213897705078,14.661214828491211,139.47976684570312,25.48,-1.632942795753479,2.0119149684906006,1562,1793,7.131048202514648,1.716335415840149,-14.588651657104492
351989.01797164755,86.89734649658203,14.230974197387695,14.533480644226074,128.74801635742188,25.55,3.7906455993652344,0.5146873593330383,1542,1750,8.95754337310791,2.184443712234497,-19.08910369873047
352089.01797164755,87.30794525146484,13.978705406188965,14.36929702758789,124.22390747070312,25.46,7.287980556488037,-0.7036412954330444,1530,1710,9.971808433532715,2.843273878097534,-22.87947654724121
352189.01797164755,87.33901977539062,12.811127662658691,13.920171737670898,104.33883666992188,25.46,11.578022003173828,-1.140931487083435,1529,1650,9.717293739318848,3.134755849838257,-21.650049209594727
352289.01797164755,87.08673858642578,13.211792945861816,13.711502075195312,110.96725463867188,25.46,13.637407302856445,-1.3854427337646484,1517,1616,8.150337219238281,2.8607430458068848,-21.631473541259766
352389.01797164755,86.69029998779297,13.379830360412598,13.612848281860352,113.80792236328125,25.46,15.012619972229004,-2.303725242614746,1495,1553,5.6201653480529785,2.825021505355835,-20.312238693237305
352489.01797164755,86.31135559082031,14.114201545715332,13.765172004699707,126.643798828125,25.46,14.793976783752441,-2.418548345565796,1497,1523,2.688765287399292,2.026698112487793,-15.952515602111816
352589.01797164755,85.40531158447266,14.784253120422363,14.078643798828125,138.95367431640625,25.46,13.412898063659668,-1.365943193435669,1512,1489,0.2537098228931427,1.3335806131362915,-11.278813362121582
352689.01797164755,84.73863983154297,14.817797660827637,14.304401397705078,139.5849609375,25.46,11.70254135131836,0.03390270471572876,1534,1482,-1.949676275253296,0.7742869853973389,-8.22221851348877
352789.01797164755,82.03057098388672,14.722558975219727,14.431119918823242,137.79641723632812,25.46,8.00326156616211,2.5159900188446045,1575,1499,-3.783848285675049,0.9348673820495605,-6.3303704261779785
352889.01797164755,81.36389923095703,14.415849685668945,14.426541328430176,132.11489868164062,25.46,4.9185471534729,4.02304744720459,1599,1547,-5.376112937927246,0.6593136787414551,-2.0569114685058594
352989.01797164755,78.30664825439453,14.073100090026855,14.32142448425293,125.90728759765625,25.46,-0.28149139881134033,5.2975335121154785,1614,1629,-6.503190040588379,0.5995408892631531,-0.7407913208007812
353089.01797164755,77.63997650146484,14.598381042480469,14.405070304870605,135.48171997070312,25.46,-3.5431997776031494,5.177065849304199,1607,1674,-7.236476421356201,0.12662242352962494,0.4637344479560852
353189.01797164755,76.66256713867188,14.47885513305664,14.427244186401367,133.27224731445312,25.46,-7.362115383148193,4.022953033447266,1589,1737,-6.639838695526123,-0.30842992663383484,1.3308327198028564
353289.01797164755,77.01477813720703,15.011977195739746,14.605122566223145,143.26730346679688,25.46,-8.971806526184082,2.3686301708221436,1557,1764,-4.867108345031738,-0.508305013179779,-0.39844030141830444
353389.01797164755,77.5285873413086,14.541584968566895,14.586090087890625,134.4295654296875,25.46,-9.51960277557373,-0.9212259650230408,1511,1807,-2.3319714069366455,-0.24399599432945251,-2.108778953552246
353489.01797164755,78.19525909423828,14.201870918273926,14.471895217895508,128.22195434570312,25.46,-8.888415336608887,-2.912224531173706,1484,1815,0.6524803638458252,-0.1341993510723114,-4.730093955993652
353589.01797164755,80.21870422363281,14.688793182373047,14.537304878234863,137.16506958007812,25.46,-6.617068290710449,-4.900311470031738,1453,1812,3.68257474899292,0.7606616616249084,-9.792253494262695
353689.01797164755,80.8853759765625,14.271620750427246,14.458111763000488,129.48452758789062,25.46,-4.149789810180664,-5.587806701660156,1445,1798,5.813055038452148,1.3716449737548828,-12.544721603393555
353789.01797164755,82.85894775390625,13.984621047973633,14.317708969116211,124.32907104492188,25.46,0.458415687084198,-5.552230358123779,1444,1771,7.936944961547852,1.77349054813385,-14.192037582397461
353889.01797164755,83.52561950683594,13.117504119873047,13.96847915649414,109.38900756835938,25.46,3.8664474487304688,-3.5256879329681396,1488,1735,9.451571464538574,3.2152504920959473,-19.02708625793457
353989.01797164755,84.1576156616211,12.370794296264648,13.509028434753418,97.28961181640625,25.46,8.531495094299316,1.2379268407821655,1432,1701,9.685330390930176,3.86555814743042,-19.600759506225586
354089.01797164755,84.79561614990234,12.583026885986328,13.238030433654785,100.65643310546875,25.46,10.826634407043457,3.678769588470459,1318,1661,9.278395652770996,4.226388454437256,-19.057613372802734
354189.01797164755,85.26612854003906,12.031691551208496,12.88798999786377,92.02899169921875,25.46,13.426411628723145,8.813454627990723,1364,1605,8.479743003845215,4.522143840789795,-19.409515380859375
354289.01797164755,85.61470794677734,11.928082466125488,12.607693672180176,90.45083618164062,25.46,14.541070938110352,13.540536880493164,1440,1587,6.818387985229492,4.757869243621826,-20.048662185668945
354389.01797164755,85.68596649169922,11.28647518157959,12.226329803466797,80.98190307617188,25.39,14.87692642211914,21.06504249572754,1574,1555,3.783216714859009,4.740289688110352,-22.63773536682129
354489.01797164755,85.43678283691406,11.661489486694336,12.05965518951416,86.45285034179688,25.42,14.467012405395508,24.710201263427734,1633,1553,-0.47980692982673645,4.364896297454834,-20.32400131225586
354589.01797164755,84.54670715332031,12.602740287780762,12.225114822387695,100.97207641601562,25.46,13.464579582214355,25.965829849243164,1678,1514,-4.691164016723633,3.258352279663086,-15.725800514221191
354689.01797164755,83.88003540039062,13.643172264099121,12.667211532592773,118.33193969726562,25.46,12.579227447509766,24.247989654541016,1662,1498,-8.053637504577637,2.2968857288360596,-10.393966674804688
354789.01797164755,79.82991790771484,13.274277687072754,12.852341651916504,112.01934814453125,25.42,10.778945922851562,19.28815460205078,1596,1427,-10.169734954833984,1.994502305984497,-7.818460464477539
354889.01797164755,78.90084075927734,13.447691917419434,13.033802032470703,114.96530151367188,25.36,8.896982192993164,15.514640808105469,1553,1414,-11.583230018615723,1.8504084348678589,-4.473050117492676
354989.01797164755,73.87460327148438,13.533563613891602,13.185720443725586,116.438232421875,25.36,4.5424885749816895,10.875560760498047,1484,1434,-12.58231258392334,1.369966745376587,-1.979638695716858
355089.01797164755,73.20793151855469,13.727826118469238,13.350663185119629,119.80496215820312,25.36,0.5619544386863708,8.62942886352539,1443,1478,-13.523180961608887,1.119657278060913,-0.37110674381256104
355189.01797164755,69.76561737060547,14.149337768554688,13.595192909240723,127.27511596679688,25.36,-6.1860737800598145,6.388513565063477,1397,1604,-14.665234565734863,-0.2592636048793793,2.116387128829956
355289.01797164755,69.09894561767578,14.484565734863281,13.867995262145996,133.37741088867188,25.36,-10.591426849365234,5.677753448486328,1389,1658,-15.087333679199219,-0.17008483409881592,4.1979827880859375
355389.01797164755,67.93668365478516,14.700057029724121,14.122761726379395,137.37551879882812,25.36,-16.019119262695312,6.103689670562744,1400,1750,-13.910791397094727,-0.6655968427658081,5.635580062866211
355489.01797164755,67.82088470458984,15.328351974487305,14.49497127532959,149.36959838867188,25.36,-18.115259170532227,6.939732074737549,1401,1801,-11.378994941711426,-0.7628128528594971,4.51177978515625
355589.01797164755,68.3434066772461,14.867974281311035,14.607872009277344,140.53189086914062,25.36,-19.35911750793457,7.902515411376953,1411,1859,-7.955314636230469,-1.6274774074554443,-0.01436102390289306
355689.01797164755,69.01007843017578,14.335259437561035,14.526625633239746,130.64187622070312,25.36,-18.793485641479492,8.630627632141113,1427,1868,-4.297185897827148,-1.4152899980545044,-3.0195274353027344
355789.01797164755,72.19975280761719,14.300581932067871,14.459182739257812,130.01058959960938,25.36,-15.975069046020508,10.29555606842041,1451,1875,0.2629213333129883,-0.8971143364906311,-8.24223518371582
355889.01797164755,72.86642456054688,14.415847778320312,14.446196556091309,132.1148681640625,25.36,-13.017087936401367,11.239163398742676,1466,1866,3.9063553810119624,0.10879452526569366,-13.537361145019531
355989.01797164755,76.41126251220703,14.078977584838867,14.337018013000488,126.01248168945312,25.36,-7.6216559410095215,13.299097061157227,1520,1837,6.811712741851807,1.0918298959732056,-17.612838745117188
356089.01797164755,77.07793426513672,12.926870346069336,13.928971290588379,106.232666015625,25.36,-3.5884249210357666,15.262154579162598,1559,1808,8.823454856872559,2.856355667114258,-21.465238571166992
356189.01797164755,78.453857421875,12.2969970703125,13.460171699523926,96.13232421875,25.36,2.51334547996521,17.987548828125,1628,1773,9.908371925354004,3.7450525760650635,-22.390056610107422
356289.01797164755,78.98883056640625,11.43940258026123,12.88725471496582,83.19131469726562,25.36,6.140817642211914,19.232391357421875,1664,1731,9.958586692810059,4.599716663360596,-23.50515365600586
356389.01797164755,79.55972290039062,10.913735389709473,12.328414916992188,75.7213134765625,25.36,10.251428604125977,19.21689224243164,1707,1683,8.69163990020752,4.563257217407227,-23.109451293945312
356489.01797164755,80.18448638916016,11.525886535644531,12.093249320983887,84.45394897460938,25.36,12.000996589660645,17.286767959594727,1691,1639,6.430765151977539,3.7584986686706543,-20.305706024169922
356589.01797164755,80.69379425048828,11.816571235656738,12.01091480255127,88.76754760742188,25.36,13.544807434082031,11.972884178161621,1653,1553,3.9429385662078857,3.2094433307647705,-17.71368408203125
356689.01797164755,81.1934814453125,12.824044227600098,12.260518074035645,104.54934692382812,25.36,13.751538276672363,7.316023349761963,1597,1505,1.7405158281326294,2.164788246154785,-13.455057144165039
356789.01797164755,81.34983825683594,13.63711166381836,12.689187049865723,118.22683715820312,25.36,12.535289764404297,1.6479382514953613,1549,1445,-0.3814592957496643,1.5387932062149048,-14.247415542602539
356889.01797164755,80.70816040039062,13.960932731628418,13.083696365356445,123.90823364257812,25.36,10.640186309814453,-0.4221406877040863,1519,1435,-2.591641902923584,1.2247085571289062,-10.0409517288208
356989.01797164755,78.81446838378906,13.895580291748047,13.332453727722168,122.75088500976562,25.36,6.939833164215088,-3.5495190620422363,1465,1438,-5.350549697875977,1.1411993503570557,-7.747592449188232
357089.01797164755,78.14779663085938,14.090725898742676,13.564387321472168,126.22286987304688,25.36,3.7348744869232178,-4.503473281860352,1451,1442,-7.6893310546875,0.8601018190383911,-5.656159400939941
357189.01797164755,74.33727264404297,13.990537643432617,13.693625450134277,124.43429565429688,25.36,-2.2720258235931396,-5.632717609405518,1430,1536,-9.956705093383789,0.5156533718109131,-1.7747340202331543
357289.01797164755,73.67060089111328,14.049559593200684,13.801369667053223,125.48641967773438,25.36,-6.570621490478516,-5.792499542236328,1433,1600,-11.792295455932617,0.5122307538986206,0.7648606896400452
357389.01797164755,70.15999603271484,14.114197731018066,13.895957946777344,126.64373779296875,25.36,-12.31190013885498,-5.658436298370361,1447,1711,-12.473204612731934,0.2684849202632904,3.5133862495422363
357489.01797164755,69.49332427978516,14.450248718261719,14.064538955688477,132.74615478515625,25.36,-15.117663383483887,-5.305521011352539,1448,1765,-11.501225471496582,-0.7213377952575684,4.582259654998779
357589.01797164755,69.48011779785156,14.455972671508789,14.183103561401367,132.85134887695312,25.26,-17.187650680541992,-4.470919609069824,1481,1833,-8.969985008239746,-0.6998387575149536,2.1371002197265625
357689.01797164755,70.14678955078125,14.1376314163208,14.169477462768555,127.06460571289062,25.26,-17.182226181030273,-3.679009437561035,1487,1840,-6.144155502319336,-0.4047386348247528,-4.774202346801758
357789.01797164755,71.26616668701172,13.435372352600098,13.953302383422852,114.7547607421875,25.26,-15.10092544555664,-2.4079930782318115,1516,1864,-2.8900978565216064,-0.026702117174863815,-5.56624174118042
357889.01797164755,71.9328384399414,13.545787811279297,13.832308769226074,116.648681640625,25.28,-12.772391319274902,-1.5781289339065552,1528,1856,0.38764065504074097,0.27636709809303284,-9.149934768676758
357989.01797164755,75.2451400756836,12.888409614562988,13.556041717529297,105.60147094726562,25.36,-8.204567909240723,-2.2245969772338867,1517,1829,2.903524875640869,1.726858377456665,-15.226733207702637
358089.01797164755,75.91181182861328,13.054277420043945,13.40748405456543,108.3370361328125,25.26,-4.581501007080078,-2.979599952697754,1518,1798,5.028782844543457,2.1130332946777344,-15.383308410644531
358189.01797164755,79.06719970703125,12.36410903930664,13.103198051452637,97.18447875976562,25.26,1.0747535228729248,-3.6932990550994873,1516,1742,6.852555274963379,2.9159014225006104,-19.299898147583008
358289.01797164755,79.73387145996094,12.25655460357666,12.855061531066895,95.50103759765625,25.26,4.601097583770752,-3.89689302444458,1521,1691,7.74475622177124,2.9371652603149414,-19.469562530517578
358389.01797164755,82.498779296875,13.30540943145752,12.991805076599121,112.54541015625,25.26,8.754610061645508,-4.912607669830322,1503,1615,8.52397632598877,2.7527222633361816,-16.126813888549805
358489.01797164755,83.16545104980469,12.66822624206543,12.895584106445312,102.02413940429688,25.26,11.1239595413208,-5.317682266235352,1516,1548,8.619627952575684,3.417412757873535,-21.011943817138672
358589.01797164755,83.54691314697266,12.397522926330566,12.748208999633789,97.71047973632812,25.26,13.106111526489258,-5.648038864135742,1500,1474,6.457915782928467,3.4141311645507812,-22.544706344604492
358689.01797164755,83.10446166992188,13.484557151794434,12.973502159118652,115.59649658203125,25.26,12.932275772094727,-5.686303615570068,1500,1474,2.993671417236328,2.2877728939056396,-17.157886505126953
358789.01797164755,82.11943817138672,13.673467636108398,13.187394142150879,118.85806274414062,25.26,10.686899185180664,-4.694317817687988,1516,1427,-0.4370629191398625,1.5156959295272827,-11.416961669921875
358889.01797164755,81.45276641845703,14.043669700622559,13.45000171661377,125.3812255859375,25.26,8.052461624145508,-3.5976192951202393,1500,1430,-3.075746536254883,1.2344048023223877,-6.621177673339844
358989.01797164755,79.28263092041016,13.83590030670166,13.566924095153809,121.69876098632812,25.26,2.8815114498138428,-1.5025147199630737,1292,1472,-5.330279350280762,0.9299825429916382,-2.477368116378784
359089.01797164755,78.61595916748047,13.96093463897705,13.686318397521973,123.90826416015625,25.26,-1.2551162242889404,1.3202877044677734,1321,1542,-7.673254489898682,0.30935928225517273,-2.0977940559387207
359189.01797164755,76.48751831054688,13.984623908996582,13.776488304138184,124.32913208007812,25.26,-7.650767803192139,6.443810939788818,1388,1654,-9.752080917358398,0.3411344885826111,1.902687430381775
359289.01797164755,75.82084655761719,14.236788749694824,13.916176795959473,128.85324096679688,25.26,-11.505170822143555,9.343254089355469,1420,1702,-10.594253540039062,0.4312894642353058,1.9125733375549316
359389.01797164755,75.54507446289062,14.564327239990234,14.113747596740723,134.85037231445312,25.26,-15.400001525878906,12.146869659423828,1449,1795,-9.553149223327637,-0.2597690522670746,3.808579921722412
359489.01797164755,76.04851531982422,14.700056076049805,14.292165756225586,137.37548828125,25.26,-16.290884017944336,13.228988647460938,1458,1829,-6.954429626464844,-0.1873708963394165,0.7062367796897888
359589.01797164755,77.18345642089844,14.575689315795898,14.377809524536133,135.06085205078125,25.26,-15.236227035522461,14.68882942199707,1485,1866,-4.323610305786133,-0.2744215726852417,-4.041726589202881
359689.01797164755,77.85012817382812,14.352568626403809,14.37024211883545,130.95755004882812,25.26,-13.455718040466309,15.457745552062988,1495,1860,-0.7397294044494624,0.10426699370145798,-6.188290119171143
359789.01797164755,81.52969360351562,14.598376274108887,14.439061164855957,135.48162841796875,25.26,-9.13444995880127,16.439123153686523,1521,1844,3.0054168701171875,0.13846707344055176,-10.314675331115723
359889.01797164755,82.19636535644531,14.410104751586914,14.430379867553711,132.00961303710938,25.26,-5.46286678314209,16.24514389038086,1507,1814,5.876583099365234,1.1092264652252197,-15.734420776367188
359989.01797164755,85.39849853515625,12.655159950256348,13.921603202819824,101.81378173828125,25.26,0.7217393517494202,14.27171516418457,1491,1761,8.332279205322266,2.9019174575805664,-19.04917335510254
360089.01797164755,86.06517028808594,12.990726470947266,13.649007797241211,107.2847900390625,25.26,4.767253875732422,12.850607872009277,1477,1719,9.827826499938965,3.6749351024627686,-20.84698486328125
360189.01797164755,87.6551742553711,13.054271697998047,13.473343849182129,108.33694458007812,25.26,9.554025650024414,11.350211143493652,1478,1656,10.564682960510254,3.6676764488220215,-20.453697204589844
360289.01797164755,88.32184600830078,12.477363586425781,13.182454109191895,98.97305297851562,25.26,11.70618724822998,10.666950225830078,1474,1621,9.820960998535156,4.052303791046143,-21.657697677612305
360389.01797164755,89.12037658691406,12.615865707397461,13.015067100524902,101.1824951171875,25.26,13.283512115478516,10.51590633392334,1494,1561,7.782107830047607,3.643110990524292,-20.188861846923828
360489.01797164755,89.57701873779297,13.709733009338379,13.22729778289795,119.4893798828125,25.26,13.174105644226074,10.686505317687988,1511,1551,4.992157459259033,2.9052629470825195,-16.56255340576172
360589.01797164755,89.30362701416016,13.77596664428711,13.394259452819824,120.64669799804688,25.26,11.805936813354492,11.31334400177002,1541,1497,1.9607168436050415,2.7843570709228516,-15.233094215393066
360689.01797164755,88.63695526123047,13.865776062011719,13.53743839263916,122.22488403320312,25.26,10.317337989807129,10.598007202148438,1521,1493,-1.3852283954620366,2.6634726524353027,-14.951556205749512
360789.01797164755,86.29801177978516,14.143486022949219,13.722063064575195,127.16986083984375,25.26,7.314437389373779,8.66259765625,1515,1502,-4.7564697265625,1.4956551790237427,-10.95386791229248
360889.01797164755,85.63134002685547,14.784255981445312,14.049156188964844,138.9537353515625,25.26,4.7584919929504395,7.656411170959473,1506,1518,-7.035758972167969,0.5259401202201843,-5.189094066619873
360989.01797164755,83.35185241699219,14.940155982971191,14.322277069091797,141.89971923828125,25.26,0.0004881450440734625,5.796999931335449,1479,1566,-7.878966808319092,0.26234355568885803,-1.3716849088668823
361089.01797164755,82.6851806640625,14.750636100769043,14.452116966247559,138.32247924804688,25.16,-3.3548901081085205,4.7179856300354,1466,1612,-8.570082664489746,0.5836091041564941,0.5693846940994263
361189.01797164755,80.57756042480469,15.192795753479004,14.678245544433594,146.7393798828125,25.16,-8.18271255493164,3.6364169120788574,1456,1698,-8.652868270874023,-0.19277602434158325,0.73433917760849
361289.01797164755,80.16421508789062,15.138233184814453,14.817741394042969,145.68728637695312,25.16,-10.675795555114746,3.582996129989624,1459,1734,-8.495401382446289,-0.41988253593444824,0.14343813061714172
361389.01797164755,80.50242614746094,15.585326194763184,15.05212688446045,154.41983032226562,25.16,-12.937023162841797,3.9725584983825684,1471,1781,-7.232567310333252,-1.6018239259719849,-0.21249249577522278
361489.01797164755,81.16909790039062,16.153690338134766,15.390876770019531,165.887939453125,25.16,-13.290580749511719,4.203229904174805,1476,1804,-3.9394254684448238,-1.427956223487854,3.49743390083313
361589.01797164755,82.83899688720703,15.654191017150879,15.470341682434082,155.7874755859375,25.16,-12.436808586120605,5.81267786026001,1503,1820,-0.14839558303356215,-0.7361571192741394,-3.5225830078125
361689.01797164755,83.50566864013672,15.333749771118164,15.429491996765137,149.47482299804688,25.16,-10.668630599975586,6.8805251121521,1520,1836,3.320878028869629,-0.5685722231864929,-5.356766700744629
361789.01797164755,86.01607513427734,15.247159957885742,15.375019073486328,147.79141235351562,25.16,-6.96139669418335,7.631065368652344,1534,1826,6.840582847595215,-0.09826238453388214,-9.722506523132324
361889.01797164755,86.68274688720703,15.10539722442627,15.294631004333496,145.05596923828125,25.16,-3.8254401683807373,8.091503143310547,1545,1797,9.575512886047363,0.9754422903060913,-14.020135879516602
361989.01797164755,89.71659851074219,14.716937065124512,15.123640060424805,137.69119262695312,25.16,1.729507327079773,7.052705764770508,1534,1758,11.411114692687988,2.1017234325408936,-19.059791564941406
362089.01797164755,89.94117736816406,13.243073463439941,14.584953308105469,111.49331665039062,25.16,5.547054767608643,5.841308116912842,1530,1738,12.21737003326416,3.6316792964935303,-23.777751922607422
362189.01797164755,91.28731536865234,13.793973922729492,14.3522367477417,120.96231079101562,25.16,9.839859008789062,4.612441539764404,1536,1696,12.706034660339355,1.9892785549163818,-17.122352600097656
362289.01797164755,91.95398712158203,14.535894393920898,14.407580375671387,134.32437133789062,25.16,12.05236530303955,3.9597856998443604,1535,1654,12.623637199401855,2.7731752395629883,-17.857257843017578
362389.01797164755,94.55803680419922,14.329486846923828,14.384196281433105,130.53668212890625,25.16,14.498489379882812,2.900460958480835,1530,1590,11.996822357177734,2.7173633575439453,-17.867225646972656
362489.01797164755,95.19975280761719,14.364092826843262,14.378168106079102,131.16793823242188,25.16,15.403961181640625,2.2183916568756104,1527,1568,10.854493141174316,2.7553274631500244,-17.090621948242188
362589.01797164755,94.94647979736328,14.427324295043945,14.392932891845703,132.32528686523438,25.16,15.353456497192383,1.933779001235962,1539,1541,8.807842254638672,3.2634074687957764,-15.050853729248047
362689.01797164755,94.2798080444336,14.392868041992188,14.392913818359375,131.69400024414062,25.16,14.467740058898926,1.0334069728851318,1516,1536,6.233823299407959,2.5505290031433105,-13.68995189666748
362789.01797164755,92.63518524169922,13.919381141662598,14.252506256103516,123.1717529296875,25.16,12.59363842010498,-1.8067207336425781,1332,1530,3.0815422534942623,2.589083194732666,-15.548172950744629
362889.01797164755,91.96851348876953,14.962288856506348,14.469097137451172,142.32046508789062,25.16,10.962915420532227,-2.864577293395996,1144,1558,0.8628642559051514,1.6759871244430542,-8.729878425598145
362989.01797164755,90.48705291748047,15.306743621826172,14.725395202636719,148.94876098632812,25.16,8.131025314331055,0.02813565544784069,1153,1543,-1.4794319868087769,0.7131088972091675,-8.36647891998291
363089.01797164755,89.82038116455078,14.984394073486328,14.803570747375488,142.74130249023438,25.16,6.094542026519775,5.245841026306152,1233,1558,-4.330282211303711,0.6081229448318481,-7.597341060638428
363189.01797164755,88.11345672607422,15.500140190124512,15.015934944152832,152.73638916015625,25.16,2.394357442855835,15.210254669189453,1368,1616,-6.1085381507873535,0.6159870624542236,-4.87779426574707
363289.01797164755,87.9085693359375,15.328354835510254,15.110339164733887,149.36965942382812,25.16,-0.5677686333656311,20.811717987060547,1433,1653,-6.359912872314453,0.2706286907196045,-0.2816396653652191
363389.01797164755,87.72616577148438,15.722763061523438,15.29664134979248,157.15530395507812,25.16,-4.605663776397705,24.900911331176758,1465,1726,-5.265361785888672,0.7553239464759827,0.43676766753196716
363489.01797164755,87.05949401855469,14.845694541931152,15.162764549255371,140.11102294921875,25.16,-6.394630432128906,25.739503860473633,1475,1765,-3.483851194381714,1.3419215679168701,-1.7776167392730713
363589.01797164755,85.69215393066406,14.575687408447266,14.989055633544922,135.06082153320312,25.16,-7.464296817779541,26.6810302734375,1487,1820,-1.6130698919296262,1.1189547777175903,-3.4647510051727295
363689.01797164755,85.895751953125,14.323708534240723,14.792593955993652,130.43142700195312,25.16,-6.9701972007751465,26.66255760192871,1473,1825,0.7883890271186829,1.248610258102417,-6.402884483337402
363789.01797164755,87.44783020019531,15.034006118774414,14.865429878234863,143.68807983398438,25.16,-4.626248359680176,26.320951461791992,1481,1826,3.2059621810913086,-0.09532156586647034,-8.869105339050293
363889.01797164755,88.114501953125,15.521478652954102,15.065244674682617,153.1572265625,25.16,-2.3383185863494873,25.897789001464844,1472,1802,5.691071033477783,1.4247835874557495,-14.535493850708008
363989.01797164755,90.26158905029297,14.728178024291992,14.964921951293945,137.901611328125,25.16,2.4694597721099854,24.892601013183594,1470,1772,8.118685722351074,2.8887648582458496,-15.314325332641602
364089.01797164755,89.6302719116211,13.612814903259277,14.572468757629395,117.80593872070312,25.16,6.320465564727783,24.165613174438477,1461,1748,8.733983993530273,3.8682732582092285,-21.251144409179688
364189.01797164755,90.01958465576172,13.355069160461426,14.218198776245117,113.3870849609375,25.16,11.332541465759277,23.84271812438965,1483,1690,9.784730911254883,4.083489894866943,-24.14982795715332
364289.01797164755,89.85861206054688,13.211790084838867,13.92391586303711,110.96719360351562,25.16,14.412622451782227,22.71457862854004,1466,1652,8.980400085449219,3.717097520828247,-20.43832015991211
364389.01797164755,90.15199279785156,13.576295852661133,13.820548057556152,117.17471313476562,25.16,17.816530227661133,22.288230895996094,1519,1567,8.422000885009766,3.547163724899292,-21.127614974975586
364489.01797164755,90.12053680419922,13.205526351928711,13.63895320892334,110.86199951171875,25.16,19.14937400817871,22.84575653076172,1542,1537,6.832172393798828,3.118295192718506,-18.367582321166992
364589.01797164755,90.41001892089844,14.427322387695312,13.880167007446289,132.32525634765625,25.16,19.6224422454834,22.166616439819336,1563,1472,5.012519836425781,1.9602867364883423,-12.932788848876953
364689.01797164755,90.25984954833984,14.020087242126465,13.922290802001953,124.96047973632812,25.12,19.082889556884766,23.382661819458008,1650,1424,3.198638677597046,2.749133586883545,-15.833210945129395
364789.01797164755,89.15086364746094,12.004154205322266,13.375762939453125,91.60821533203125,25.07,17.35611915588379,26.58941078186035,1720,1430,-1.20723295211792,3.20072340965271,-17.864761352539062
364889.01797164755,88.48419189453125,13.667413711547852,13.463921546936035,118.75283813476562,25.07,15.504490852355957,25.106544494628906,1700,1452,-6.462878704071045,1.921650767326355,-10.661287307739258
364989.01797164755,84.56480407714844,14.728174209594727,13.855315208435059,137.90155029296875,25.07,11.544544219970703,19.431808471679688,1655,1412,-9.629858016967773,0.5128067135810852,-4.27770471572876
365089.01797164755,83.89813232421875,15.16553783416748,14.261028289794922,146.21331787109375,25.07,8.133513450622559,15.019332885742188,1604,1427,-10.842044830322266,-0.28404074907302856,1.1649582386016846
365189.01797164755,80.68688201904297,15.258014678955078,14.567290306091309,148.00192260742188,25.07,1.4521421194076538,9.991789817810059,1543,1523,-10.489230155944824,0.42101553082466125,4.37259578704834
365289.01797164755,80.02021026611328,16.0766658782959,15.03602123260498,164.30972290039062,25.07,-3.4431774616241455,8.063246726989746,1521,1588,-9.570671081542969,0.5674257874488831,6.791407585144043
365389.01797164755,76.9267578125,15.801511764526367,15.269698143005371,158.73348999023438,25.07,-9.670348167419434,6.984982967376709,1493,1693,-7.741290092468262,0.7388944625854492,7.770313739776611
365489.01797164755,76.26008605957031,15.494797706604004,15.33757495880127,152.63113403320312,25.07,-12.371787071228027,5.790349960327148,1465,1739,-4.43455696105957,-0.644745945930481,2.9637701511383057
365589.01797164755,76.36243438720703,14.929069519042969,15.216175079345703,141.689208984375,25.07,-14.221132278442383,1.7489491701126099,1295,1803,-1.7192517518997192,-1.2710978984832764,-5.695427417755127
365689.01797164755,77.02910614013672,14.867972373962402,15.112556457519531,140.5318603515625,25.07,-14.440937042236328,-0.23141108453273773,1145,1825,0.957238495349884,-0.8469615578651428,-5.5728020668029785
365789.01797164755,79.4432144165039,14.984396934509277,15.074222564697266,142.74136352539062,25.07,-12.821700096130371,0.9406566023826599,1149,1841,1.8352776765823364,-0.7382674217224121,-9.278213500976562
365889.01797164755,80.1098861694336,14.694427490234375,14.961296081542969,137.27032470703125,25.07,-10.841588020324707,5.1506733894348145,1209,1832,2.5515007972717285,0.16413383185863495,-10.194195747375488
365989.01797164755,83.73843383789062,14.694427490234375,14.881738662719727,137.27032470703125,25.07,-6.992653846740723,14.815484046936035,1337,1832,3.9446909427642822,1.2565934658050537,-13.858672142028809
366089.01797164755,84.40510559082031,14.207697868347168,14.682775497436523,128.32720947265625,25.07,-4.433938026428223,21.586008071899414,1413,1834,5.921419620513916,2.671753406524658,-18.243959426879883
366189.01797164755,88.58937072753906,13.459990501403809,14.326902389526367,115.17568969726562,25.07,-0.9658380150794983,29.121227264404297,1504,1854,7.800849914550781,3.943307638168335,-20.818233489990234
366289.01797164755,89.25604248046875,13.047932624816895,13.955524444580078,108.23175048828125,25.07,1.3023631572723389,32.64434814453125,1555,1846,8.921625137329102,5.138788223266602,-21.74147605895996
366389.01797164755,91.94470977783203,11.9972562789917,13.398130416870117,91.50296020507812,25.07,5.226683616638184,35.98047637939453,1624,1836,9.241117477416992,5.583250045776367,-22.97809600830078
366489.01797164755,92.61138153076172,11.388654708862305,12.828381538391113,82.454833984375,25.07,8.061284065246582,36.96149826049805,1651,1808,9.161166191101074,5.866529941558838,-24.048078536987305
366589.01797164755,94.75833129882812,11.928084373474121,12.565067291259766,90.45086669921875,25.07,12.297131538391113,35.888404846191406,1680,1769,8.609742164611816,6.300556659698486,-23.315921783447266
366689.01797164755,94.64348602294922,11.9972562789917,12.397455215454102,91.50296020507812,25.07,15.086445808410645,33.420589447021484,1669,1711,7.7748236656188965,6.210977554321289,-21.592573165893555
366789.01797164755,93.26277923583984,11.851533889770508,12.236235618591309,89.29360961914062,25.07,18.874345779418945,27.872526168823242,1650,1609,6.797482490539551,6.300926685333252,-20.960554122924805
366889.01797164755,92.59610748291016,12.182061195373535,12.220008850097656,94.34368896484375,25.07,20.642032623291016,23.436630249023438,1613,1532,5.759456157684326,5.738739013671875,-18.77225112915039
366989.01797164755,90.62222290039062,11.928084373474121,12.133169174194336,90.45086669921875,25.07,21.426244735717773,16.518966674804688,1568,1429,4.467278003692627,4.573716640472412,-15.755088806152344
367089.01797164755,89.95555114746094,12.550104141235352,12.25973892211914,100.13040161132812,25.07,20.268962860107422,12.769355773925781,1540,1405,2.672982931137085,3.7710649967193604,-12.66822624206543
367189.01797164755,88.67487335205078,13.104881286621094,12.51927375793457,109.1785888671875,25.07,16.253799438476562,9.298360824584961,1529,1381,0.06772471964359283,3.2194981575012207,-6.366140842437744
367289.01797164755,88.0082015991211,13.435372352600098,12.800989151000977,114.7547607421875,25.07,12.51632308959961,7.187860012054443,1486,1381,-2.7784087657928467,3.030770778656006,-4.029304027557373
367389.01797164755,85.25037384033203,13.582390785217285,13.040327072143555,117.27993774414062,25.07,5.4069061279296875,4.328679084777832,1451,1460,-5.019587516784668,2.919682264328003,-0.19240225851535797
367489.01797164755,84.58370208740234,14.020079612731934,13.34181022644043,124.96035766601562,25.07,0.0645638033747673,3.4886295795440674,1448,1535,-7.319204807281494,2.531414270401001,4.191368579864502
367589.01797164755,81.46969604492188,14.455972671508789,13.685585975646973,132.85134887695312,25.07,-8.025741577148438,3.5151047706604004,1451,1685,-8.758764266967773,2.6581151485443115,6.77023458480835
367689.01797164755,80.80302429199219,14.906882286071777,14.063116073608398,141.26837158203125,25.07,-12.165680885314941,3.8762290477752686,1457,1752,-9.1590576171875,2.320673942565918,8.46841049194336
367789.01797164755,79.75747680664062,14.934613227844238,14.330131530761719,141.79446411132812,25.07,-15.95455265045166,4.068284511566162,1458,1848,-7.6891279220581055,1.6957145929336548,5.828695297241211
367889.01797164755,80.42414855957031,14.242600440979004,14.30392837524414,128.95846557617188,25.07,-16.8638916015625,4.113837718963623,1466,1878,-5.1819987297058105,1.4209308624267578,0.2930658459663391
367989.01797164755,83.04449462890625,13.901532173156738,14.184408187866211,122.8560791015625,25.07,-15.99193286895752,6.0982890129089355,1513,1908,-2.4152166843414307,0.9306120872497559,-3.532170534133911
368089.01797164755,83.71116638183594,14.352568626403809,14.235065460205078,130.95755004882812,24.97,-13.971125602722168,7.875413417816162,1496,1905,0.7237784862518306,0.5833798050880432,-10.28093433380127
368189.01797164755,89.63321685791016,14.358329772949219,14.27215576171875,131.06271362304688,24.97,-9.246204376220703,10.546504020690918,1184,1902,3.4445624351501465,2.325244665145874,-13.479904174804688
368289.01797164755,91.36841583251953,13.829919815063477,14.140937805175781,121.59356689453125,24.97,-5.35552978515625,14.236231803894043,1218,1876,6.3481316566467285,3.510634422302246,-17.79936981201172
368389.01797164755,96.24209594726562,13.218050003051758,13.87052059173584,111.0723876953125,24.97,0.8224822878837585,22.42631721496582,1330,1843,9.439695358276367,4.2060112953186035,-18.5003604888916
368489.01797164755,97.84860229492188,12.778792381286621,13.552240371704102,103.81280517578125,24.97,4.977097034454346,28.18886947631836,1409,1817,11.731266021728516,6.236701011657715,-22.735544204711914
368589.01797164755,100,11.907256126403809,13.080484390258789,90.13525390625,24.97,10.276625633239746,35.75667953491211,1513,1797,12.849376678466797,6.495394706726074,-22.85512351989746
368689.01797164755,100,12.004152297973633,12.767115592956543,91.60818481445312,24.97,13.348160743713379,40.05361557006836,1589,1782,12.970412254333496,7.5196943283081055,-27.07830047607422
368789.01797164755,100,10.89095687866211,12.234514236450195,75.40556335449219,24.97,16.772830963134766,45.384429931640625,1705,1793,11.089370727539062,7.284546852111816,-25.887191772460938
368889.01797164755,100,11.403176307678223,11.991167068481445,82.66525268554688,24.97,18.472318649291992,46.46147918701172,1725,1782,8.642004013061523,5.702363967895508,-23.483190536499023
368989.01797164755,100,12.569867134094238,12.167667388916016,100.44601440429688,24.97,20.769615173339844,43.50556182861328,1720,1693,6.758309841156006,4.968356132507324,-19.55692481994629
369089.01797164755,100,12.390846252441406,12.235048294067383,97.60525512695312,24.97,22.594453811645508,39.25038528442383,1676,1612,6.432153224945068,5.033010959625244,-20.787519454956055
369189.01797164755,100,13.255563735961914,12.549920082092285,111.7037353515625,24.97,24.448692321777344,31.896381378173828,1623,1467,6.969374179840088,4.39125394821167,-19.38716697692871
369289.01797164755,100,13.047930717468262,12.701373100280762,108.23171997070312,24.97,24.086862564086914,27.2542781829834,1588,1418,6.825435638427734,4.345556735992432,-16.273090362548828
369389.01797164755,100,13.336465835571289,12.895186424255371,113.0714111328125,24.97,20.796537399291992,21.202972412109375,1552,1356,5.155138969421387,4.017162322998047,-11.89417839050293
369489.01797164755,99.33332824707031,14.265820503234863,13.321191787719727,129.37930297851562,24.97,17.19891929626465,18.10272979736328,1528,1368,2.3320255279541016,3.389164447784424,-7.391320705413818
369589.01797164755,94.42123413085938,14.967822074890137,13.835773468017578,142.42575073242188,24.97,9.563530921936035,14.7516508102417,1502,1431,-0.8162704110145569,3.0503573417663574,-1.5253019332885742
369689.01797164755,93.0011215209961,15.045018196105957,14.209356307983398,143.89865112304688,24.97,3.456611156463623,13.550148010253906,1495,1493,-4.40347146987915,2.726919174194336,4.098249435424805
369789.01797164755,87.56965637207031,15.387618064880371,14.572840690612793,150.52688598632812,24.97,-5.598790645599365,12.784625053405762,1480,1668,-7.382343769073486,2.7369534969329834,7.9749321937561035
369889.01797164755,85.91014862060547,15.869443893432617,14.973615646362305,160.10125732421875,24.97,-10.569560050964355,12.38846492767334,1464,1734,-9.019169807434082,2.05240797996521,8.794671058654785
369989.01797164755,82.44902801513672,16.02511215209961,15.296655654907227,163.25759887695312,24.97,-15.318929672241211,11.404864311218262,1438,1828,-8.832215309143066,1.116439938545227,7.292644500732422
370089.01797164755,83.1156997680664,15.606545448303223,15.390277862548828,154.84060668945312,24.97,-16.48992156982422,10.816795349121094,1430,1859,-6.992688179016113,0.14780238270759583,2.340932607650757
370189.01797164755,85.93391418457031,15.24716567993164,15.347484588623047,147.79153442382812,24.97,-15.790566444396973,10.96279239654541,1441,1883,-4.301836967468262,-0.25551751255989075,-3.2870261669158936
370289.01797164755,86.85807037353516,15.105396270751953,15.275260925292969,145.05593872070312,24.97,-13.742387771606445,11.75572395324707,1459,1889,-1.1847758293151855,-0.011366174556314945,-7.461860179901123
370389.01797164755,92.794921875,15.441304206848145,15.325263023376465,151.57907104492188,24.97,-9.232874870300293,13.6388578414917,1499,1879,2.2897317409515385,1.040501356124878,-13.573456764221191
370489.01797164755,95.02175903320312,15.050518035888672,15.243359565734863,144.00387573242188,24.97,-5.386208534240723,15.026227951049805,1530,1862,5.498549461364746,2.253089189529419,-18.558311462402344
370589.01797164755,99.47955322265625,14.513102531433105,15.028008460998535,133.90347290039062,24.87,1.2830005884170532,16.686809539794922,1573,1822,8.208427429199219,4.5316972732543945,-23.247234344482422
370689.01797164755,100,13.631041526794434,14.62293815612793,118.12161254882812,24.91,5.912587642669678,17.09097671508789,1597,1781,10.607150077819824,5.652249336242676,-26.438201904296875
370789.01797164755,100,13.47227668762207,14.28747272491455,115.38604736328125,24.9,12.37475299835205,16.616296768188477,1637,1724,11.999105453491211,5.999680042266846,-27.828676223754883
370889.01797164755,100,13.502954483032227,14.056715965270996,115.91213989257812,24.87,15.639318466186523,15.935731887817383,1656,1683,12.537702560424805,5.649275779724121,-25.433258056640625
370989.01797164755,100,13.697651863098145,13.949967384338379,119.27886962890625,24.87,18.77080535888672,13.096639633178711,1667,1611,12.195892333984375,4.394824504852295,-23.520509719848633
371089.01797164755,100,13.955009460449219,13.9514799118042,123.8031005859375,24.87,19.952884674072266,9.930630683898926,1646,1577,11.18648910522461,3.6706149578094482,-20.512069702148438
371189.01797164755,100,14.716930389404297,14.185452461242676,137.69107055664062,24.87,20.099735260009766,4.463665008544922,1607,1510,9.803422927856445,2.962433338165283,-16.510461807250977
371289.01797164755,100,15.236300468444824,14.508700370788574,147.58096313476562,24.87,19.19039535522461,0.6138463020324707,1567,1493,8.232619285583496,2.7422118186950684,-13.11608600616455
371389.01797164755,100,15.462724685668945,22.625537872314453,151.99990844726562,24.87,16.450992584228516,-4.42685079574585,1510,1479,6.304383277893066,2.549323081970215,-9.01673412322998
371489.01797164755,99.33332824707031,15.160077095031738,22.610557556152344,146.1080322265625,24.87,13.872188568115234,-7.02368688583374,1499,1396,4.2964959144592285,2.426124095916748,-5.6445393562316895
371589.01797164755,87.33323669433594,15.214564323425293,22.35213851928711,147.16018676757812,24.87,8.89717960357666,-9.707465171813965,1464,1552,2.1496987342834473,-1.513214349746704,-2.7664709091186523
371689.01797164755,79.33317565917969,14.728178024291992,21.95691680908203,137.901611328125,24.87,5.498709678649902,-10.635494232177734,1455,1602,-0.06643832474946976,-3.8731114864349365,0.9395865797996521
371789.01797164755,67.33308410644531,14.660599708557129,21.361961364746094,136.6390380859375,24.87,0.9559288024902344,-10.961483001708984,1457,1651,-1.4299200773239136,-3.8365113735198975,0.9686378240585327
371889.01797164755,59.33308029174805,14.090729713439941,21.040576934814453,126.22293090820312,24.87,-1.407368779182434,-10.669857025146484,1462,1675,-2.0209743976593018,-3.653843879699707,1.0647947788238525
371989.01797164755,52.666439056396484,13.697651863098145,20.675811767578125,119.27886962890625,24.87,-3.9940438270568848,-9.977080345153809,1471,1707,-1.9476618766784668,-3.0807945728302,-0.17426839470863342
372089.01797164755,54.449241638183594,13.667411804199219,20.512237548828125,118.7528076171875,24.87,-5.116377353668213,-9.685941696166992,1476,1721,-1.3711501359939575,-2.5023391246795654,-1.6445279121398926
372189.01797164755,60.89768981933594,13.606738090515137,20.378164291381836,117.70077514648438,24.87,-5.866373538970947,-9.001068115234375,1488,1742,-0.2940952181816101,-1.8098794221878052,-3.2163124084472656
372289.01797164755,62.97749710083008,12.888409614562988,20.361976623535156,105.60147094726562,24.87,-5.793426036834717,-8.296605110168457,1497,1749,0.9438689351081848,-1.0963809490203857,-4.9320502281188965
372389.01797164755,68.40081024169922,13.280513763427734,20.40410041809082,112.1246337890625,24.87,-4.995789051055908,-7.1897501945495605,1511,1755,2.4186508655548096,-0.4867134690284729,-7.035480499267578
372489.01797164755,69.17337799072266,13.367459297180176,20.459074020385742,113.59756469726562,24.87,-4.050710678100586,-6.486476421356201,1520,1754,3.887220621109009,0.14472605288028717,-8.898533821105957
372589.01797164755,71.97593688964844,13.564099311828613,20.550342559814453,116.96426391601562,24.87,-2.1053311824798584,-5.856664180755615,1530,1750,5.439622402191162,0.6703117489814758,-10.512024879455566
372689.01797164755,72.64260864257812,13.46613597869873,20.621578216552734,115.2808837890625,24.87,-0.5379058718681335,-5.556461334228516,1536,1741,6.8745551109313965,1.2834476232528687,-12.364893913269043
372789.01797164755,72.84632873535156,13.18671703338623,20.693588256835938,110.54641723632812,24.87,1.988830804824829,-5.236708164215088,1541,1726,8.118972778320312,1.4186080694198608,-13.191727638244629
372889.01797164755,72.76250457763672,12.791738510131836,20.718727111816406,104.02325439453125,24.87,3.7349355220794678,-5.477550983428955,1497,1715,9.320724487304688,1.732447624206543,-13.549468040466309
372989.01797164755,72.36312866210938,12.83049201965332,20.72528076171875,104.65451049804688,24.87,6.350215435028076,-6.142350196838379,1185,1695,10.386845588684082,1.9589024782180786,-14.863137245178223
373089.01797164755,71.69645690917969,12.437507629394531,20.688589096069336,98.34176635742188,24.87,8.124859809875488,-4.878684043884277,1166,1682,11.12810230255127,1.900330901145935,-14.991689682006836
373189.01797164755,70.12892150878906,12.589601516723633,20.587860107421875,100.76165771484375,24.87,10.469586372375488,1.071262001991272,1200,1660,11.251908302307129,2.0840890407562256,-15.285054206848145
373289.01797164755,69.46224975585938,12.330597877502441,20.506816864013672,96.65838623046875,24.87,11.592745780944824,6.527989387512207,1242,1649,11.072430610656738,1.9912984371185303,-15.418177604675293
373389.01797164755,68.07439422607422,11.788520812988281,20.373926162719727,88.34661865234375,24.87,12.47973346710205,16.025394439697266,1321,1640,10.657966613769531,2.2219345569610596,-15.75163459777832
373489.01797164755,67.91812133789062,11.886384963989258,20.26502227783203,89.81954956054688,24.87,12.555249214172363,22.15252113342285,1378,1638,10.097230911254883,2.0801470279693604,-15.586725234985352
373589.01797164755,68.71914672851562,11.403181076049805,20.113603591918945,82.66531372070312,24.87,12.14523696899414,30.490266799926758,1463,1647,9.333660125732422,2.191464424133301,-14.848847389221191
373689.01797164755,69.38581848144531,11.439404487609863,20.03445816040039,83.19134521484375,24.87,11.72829818725586,35.00062561035156,1513,1655,8.569488525390625,2.1038641929626465,-13.623184204101562
373789.01797164755,72.72173309326172,11.604586601257324,19.964019775390625,85.6112060546875,24.87,11.1406888961792,39.54490661621094,1570,1669,7.81756067276001,2.015434741973877,-12.622933387756348
373889.01797164755,73.3884048461914,12.107108116149902,19.94144058227539,93.18630981445312,24.87,10.931867599487305,40.821563720703125,1591,1675,7.052804470062256,2.287360906600952,-12.010258674621582
373989.01797164755,74.30156707763672,12.503864288330078,19.95994758605957,99.3939208984375,24.87,10.893261909484863,40.615142822265625,1609,1679,6.3158721923828125,2.3512966632843018,-11.327202796936035
374089.01797164755,73.8528823852539,12.57645034790039,19.99083709716797,100.55123901367188,24.87,11.030105590820312,39.565250396728516,1611,1675,5.886877536773682,2.1935596466064453,-9.870854377746582
374189.01797164755,73.32090759277344,12.615867614746094,20.04021644592285,101.18252563476562,24.87,11.351409912109375,37.2108154296875,1608,1669,5.7044291496276855,2.00225830078125,-8.793789863586426
374289.01797164755,73.08283233642578,12.720379829406738,20.083351135253906,102.86590576171875,24.87,11.540058135986328,35.39186477661133,1599,1661,5.934057712554932,1.9546326398849487,-8.200043678283691
374389.01797164755,73.13728332519531,12.642077445983887,20.142915725708008,101.6033935546875,24.79,11.756608963012695,32.4417724609375,1585,1655,6.3503499031066895,1.7804560661315918,-8.62841510772705
374489.01797164755,73.30082702636719,12.503861427307129,20.180641174316406,99.39385986328125,24.83,11.827423095703125,30.27907371520996,1570,1652,6.929262638092041,1.999818205833435,-8.286450386047363
374589.01797164755,73.28564453125,12.283529281616211,20.233598709106445,95.921875,24.77,11.765481948852539,26.545644760131836,1545,1647,7.514067649841309,2.1418652534484863,-9.028244972229004
374689.01797164755,73.0982437133789,12.622425079345703,20.260509490966797,101.28775024414062,24.81,11.551237106323242,24.136735916137695,1529,1644,7.9015960693359375,1.963102102279663,-9.873093605041504
374789.01797164755,73.22699737548828,12.785266876220703,20.268482208251953,103.91802978515625,24.87,10.970579147338867,21.416584014892578,1515,1645,8.173040390014648,1.7423166036605835,-9.536080360412598
374889.01797164755,73.55501556396484,12.99073314666748,20.28171730041504,107.284912109375,24.85,10.47513484954834,20.064102172851562,1507,1646,8.355874061584473,1.6927988529205322,-9.793434143066406
374989.01797164755,73.45462036132812,12.583028793334961,20.282005310058594,100.65646362304688,24.77,9.805514335632324,18.059280395507812,1495,1647,8.338818550109863,1.6863809823989868,-10.800909996032715
375089.01797164755,73.35657501220703,12.888409614562988,20.2802734375,105.60147094726562,24.77,9.348766326904297,17.002470016479492,1491,1649,8.27946662902832,1.7124779224395752,-10.809452056884766
375189.01797164755,72.78367614746094,12.713871955871582,20.28177833557129,102.76068115234375,24.77,8.715025901794434,16.31695556640625,1497,1652,7.998709678649902,1.9631688594818115,-11.876791000366211
375289.01797164755,72.65312194824219,13.05427360534668,20.262351989746094,108.33697509765625,24.77,8.221988677978516,16.442094802856445,1503,1655,7.822580337524414,1.4985592365264893,-10.18784236907959
375389.01797164755,72.58110809326172,13.085931777954102,20.238143920898438,108.86306762695312,24.77,7.512791156768799,16.798770904541016,1519,1660,7.601715087890625,1.402874231338501,-10.891119956970215
375489.01797164755,72.41608428955078,13.255565643310547,20.215784072875977,111.70376586914062,24.77,7.080878257751465,17.08812141418457,1529,1663,7.372920513153076,1.458275318145752,-10.648615837097168
375589.01797164755,72.23666381835938,13.280513763427734,20.16733741760254,112.1246337890625,24.77,6.478119373321533,17.194019317626953,1543,1670,7.10418701171875,1.339990258216858,-10.431917190551758
375689.01797164755,72.31584167480469,13.155302047729492,20.152502059936523,110.02032470703125,24.77,6.0979204177856445,17.239290237426758,1552,1671,6.921379566192627,1.2647157907485962,-9.558034896850586
375789.01797164755,72.4298324584961,13.022541046142578,20.133522033691406,107.8109130859375,24.77,5.60838508605957,17.074966430664062,1567,1676,6.685275554656982,1.290513038635254,-9.278101921081543
375889.01797164755,72.75678253173828,13.2117919921875,20.130199432373047,110.96722412109375,24.77,5.336385726928711,16.692554473876953,1571,1678,6.499021530151367,1.265849232673645,-8.724912643432617
375989.01797164755,73.2249526977539,13.410720825195312,20.14684295654297,114.33404541015625,24.77,5.006539821624756,15.443990707397461,1574,1683,6.315996170043945,1.280588150024414,-8.470146179199219
376089.01797164755,73.8287353515625,13.348873138427734,20.17845916748047,113.28189086914062,24.77,4.895485877990723,14.246309280395508,1570,1683,6.232573509216309,1.3417085409164429,-8.42843246459961
376189.01797164755,74.42512512207031,13.085931777954102,20.236539840698242,108.86306762695312,24.77,4.949953556060791,11.97425365447998,1563,1684,6.243678092956543,1.3899853229522705,-8.43769645690918
376289.01797164755,74.98347473144531,13.274280548095703,20.284818649291992,112.0194091796875,24.77,5.056140422821045,10.314764976501465,1554,1685,6.362099647521973,1.4496601819992065,-8.801170349121094
376389.01797164755,75.30165100097656,13.2117919921875,20.364442825317383,110.96722412109375,24.77,5.323704242706299,7.607425212860107,1539,1683,6.462906360626221,1.7083985805511475,-9.625651359558105
376489.01797164755,75.49124908447266,13.46613597869873,20.400815963745117,115.2808837890625,24.77,5.464848041534424,5.802310943603516,1528,1683,6.5454583168029785,1.6117548942565918,-9.933366775512695
376589.01797164755,75.57362365722656,12.990730285644531,20.45002555847168,107.28485107421875,24.77,5.6785502433776855,3.1527037620544434,1510,1681,6.623950958251953,1.6114908456802368,-9.942590713500977
376689.01797164755,75.64661407470703,13.243073463439941,20.48517417907715,111.49331665039062,24.77,5.788851261138916,1.6478043794631958,1500,1681,6.656581401824951,1.4607598781585693,-10.604438781738281
376789.01797164755,75.75569915771484,13.016180038452148,20.537378311157227,107.70562744140625,24.77,5.961451530456543,0.1267959624528885,1490,1680,6.678440570831299,1.6080892086029053,-10.169476509094238
376889.01797164755,75.77764892578125,13.404546737670898,20.57423210144043,114.22879028320312,24.77,6.1069207191467285,-0.35831937193870544,1487,1681,6.700642108917236,1.4777942895889282,-10.735719680786133
376989.01797164755,74.91255950927734,12.759354591369629,20.62250328063965,103.49722290039062,24.77,6.2860918045043945,-0.3639892041683197,1493,1680,6.494366645812988,1.8333306312561035,-12.438958168029785
377089.01797164755,74.24588775634766,13.27427864074707,20.636287689208984,112.01937866210938,24.77,6.317206859588623,0.13830211758613586,1501,1680,5.869727611541748,1.2306110858917236,-11.279260635375977
377189.01797164755,73.481689453125,12.984355926513672,20.674942016601562,107.17959594726562,24.77,6.126228332519531,1.1670602560043335,1514,1680,5.4770917892456055,1.5227631330490112,-10.47032642364502
377289.01797164755,73.45590209960938,12.926874160766602,20.718231201171875,106.23272705078125,24.77,5.922658920288086,1.750385046005249,1523,1677,5.26922082901001,1.5852656364440918,-10.111940383911133
377389.01797164755,73.78379821777344,13.117506980895996,20.7735538482666,109.38906860351562,24.77,5.5779948234558105,2.2476656436920166,1534,1680,5.3005900382995605,1.5264835357666016,-9.03823471069336
377489.01797164755,74.29979705810547,13.404550552368164,20.794097900390625,114.22885131835938,24.77,5.360060691833496,2.156595230102539,1538,1686,5.284997940063477,1.1650558710098267,-8.516838073730469
377589.01797164755,74.80851745605469,13.539678573608398,20.83359718322754,116.54348754882812,24.77,5.030452251434326,1.7400497198104858,1539,1689,5.291916370391846,1.2913686037063599,-8.608864784240723
377689.01797164755,75.26824188232422,13.117512702941895,20.87213134765625,109.38916015625,24.73,4.86295223236084,1.1262893676757812,1539,1692,5.3328118324279785,1.4966219663619995,-9.011693000793457
377789.01797164755,75.4670181274414,12.746376037597656,20.948701858520508,103.28677368164062,24.68,4.73604679107666,-0.36379092931747437,1533,1693,5.220053195953369,1.5556817054748535,-9.702269554138184
377889.01797164755,75.4782485961914,12.990730285644531,21.009130477905273,107.28485107421875,24.68,4.699023723602295,-1.0995938777923584,1530,1695,5.143942356109619,1.7193520069122314,-10.131728172302246
377989.01797164755,75.19915008544922,12.222750663757324,21.124359130859375,94.9749755859375,24.68,4.8532795906066895,-2.768199920654297,1619,1695,4.9885663986206055,1.9630433320999146,-10.002147674560547
378089.01797164755,75.24220275878906,12.849828720092773,21.196008682250977,104.97018432617188,24.68,4.9674763679504395,-4.051847457885742,1738,1694,4.957454204559326,1.9828249216079712,-8.965608596801758
378189.01797164755,75.74492645263672,12.958841323852539,21.268226623535156,106.7587890625,24.68,4.908682346343994,-7.592306613922119,1746,1696,5.13148307800293,1.1494563817977905,-9.346661567687988
378289.01797164755,76.39570617675781,13.2117919921875,21.289030075073242,110.96722412109375,24.68,4.786586284637451,-11.749767303466797,1715,1698,5.229484558105469,1.4285576343536377,-10.658448219299316
378389.01797164755,77.2733154296875,13.180441856384277,21.367475509643555,110.44122314453125,24.68,4.557617664337158,-19.677324295043945,1655,1707,5.248717308044434,1.792003870010376,-9.882701873779297
378489.01797164755,77.93998718261719,12.977980613708496,21.4296875,107.07437133789062,24.68,4.313772201538086,-24.770166397094727,1615,1713,5.491603374481201,1.8483173847198486,-10.022133827209473
378589.01797164755,80.41036224365234,12.437509536743164,21.536787033081055,98.341796875,24.68,4.2377448081970215,-31.227861404418945,1562,1723,5.738847732543945,2.5528056621551514,-13.446427345275879
378689.01797164755,81.07703399658203,13.022541046142578,21.60904312133789,107.8109130859375,24.68,4.428095817565918,-34.57389450073242,1534,1730,5.741788387298584,2.6271042823791504,-12.920241355895996
378789.01797164755,83.04915618896484,13.576295852661133,21.67624855041504,117.17471313476562,24.68,5.065503120422363,-37.83052444458008,1502,1734,5.765225410461426,1.9743350744247437,-11.628728866577148
378889.01797164755,83.71582794189453,13.56409740447998,21.753963470458984,116.9642333984375,24.68,5.843859672546387,-39.155548095703125,1486,1732,5.948366165161133,2.3516058921813965,-12.781355857849121
378989.01797164755,85.1652603149414,13.582388877868652,21.873266220092773,117.2799072265625,24.68,7.209334373474121,-39.89978790283203,1475,1729,6.331670761108398,2.4588816165924072,-10.591913223266602
379089.01797164755,85.52944946289062,13.787970542907715,21.956451416015625,120.8570556640625,24.68,8.201016426086426,-39.69423294067383,1473,1722,6.965350151062012,2.5455243587493896,-11.158609390258789
379189.01797164755,85.85791015625,13.853828430175781,22.062028884887695,122.01434326171875,24.68,9.681286811828613,-39.30971908569336,1470,1711,7.761028289794922,2.5826292037963867,-11.25878620147705
379289.01797164755,86.17138671875,14.025980949401855,22.130268096923828,125.06558227539062,24.68,10.658744812011719,-39.079158782958984,1469,1702,8.497856140136719,2.8555290699005127,-11.954107284545898
379389.01797164755,86.21615600585938,14.149333000183105,22.17857551574707,127.2750244140625,24.68,12.159722328186035,-38.7490119934082,1465,1693,9.118886947631836,2.4743998050689697,-12.384740829467773
379489.01797164755,86.1212158203125,13.865772247314453,22.18789291381836,122.22482299804688,24.68,13.168655395507812,-38.4632453918457,1464,1685,9.843372344970703,2.478569984436035,-12.669634819030762
379589.01797164755,85.69168090820312,14.213521003723145,22.15796661376953,128.43240356445312,24.68,14.613637924194336,-37.83821105957031,1461,1672,10.710306167602539,2.713397979736328,-13.180882453918457
379689.01797164755,85.02500915527344,13.373648643493652,22.11749267578125,113.70278930664062,24.68,15.46814250946045,-37.39152526855469,1461,1664,11.442204475402832,2.608266830444336,-13.216658592224121
379789.01797164755,83.97286224365234,13.829917907714844,22.01563835144043,121.59353637695312,24.68,16.334918975830078,-36.516605377197266,1458,1653,12.03010368347168,2.6023943424224854,-13.082066535949707
379889.01797164755,83.30619049072266,14.025979995727539,21.9193115234375,125.0655517578125,24.68,16.66393280029297,-35.94099044799805,1455,1646,12.327141761779785,2.5047237873077393,-13.37997055053711
379989.01797164755,81.86843872070312,13.697649955749512,21.771923065185547,119.27883911132812,24.68,16.955007553100586,-35.48611831665039,1445,1640,12.368597984313965,2.2679150104522705,-13.306181907653809
380089.01797164755,81.20176696777344,13.799970626831055,21.678071975708008,121.0675048828125,24.68,17.01727294921875,-35.03989791870117,1442,1635,12.46388053894043,2.3189070224761963,-12.429997444152832
380189.01797164755,79.71287536621094,13.348873138427734,21.540071487426758,113.28189086914062,24.58,17.04475212097168,-33.925537109375,1437,1629,12.460043907165527,2.3435215950012207,-11.731230735778809
380289.01797164755,79.04620361328125,13.441537857055664,21.44510841369629,114.860107421875,24.66,17.01343536376953,-32.76827621459961,1440,1624,12.55684757232666,2.3679628372192383,-12.149624824523926
380389.01797164755,76.1211929321289,13.441534996032715,21.28196907043457,114.86004638671875,24.6,16.873197555541992,-30.947093963623047,1439,1616,12.348553657531738,2.130373477935791,-12.445754051208496
380489.01797164755,75.45452117919922,13.533557891845703,21.13705825805664,116.43814086914062,24.64,16.685768127441406,-29.924419403076172,1439,1614,12.10433292388916,1.59275221824646,-11.891844749450684
380589.01797164755,73.14026641845703,13.600655555725098,20.903884887695312,117.5955810546875,24.58,16.283336639404297,-28.438621520996094,1437,1608,11.832939147949219,1.4213155508041382,-11.053037643432617
380689.01797164755,72.47359466552734,13.496826171875,20.747512817382812,115.80694580078125,24.62,15.902721405029297,-27.425437927246094,1438,1607,11.625121116638184,1.1150366067886353,-10.479201316833496
380789.01797164755,71.09381866455078,13.46613597869873,20.514562606811523,115.2808837890625,24.61,15.244954109191895,-25.50580596923828,1442,1604,11.31899356842041,0.9408354759216309,-9.90577507019043
380889.01797164755,70.4271469116211,13.404546737670898,20.36920738220215,114.22879028320312,24.58,14.700495719909668,-24.0457706451416,1449,1605,11.02052116394043,0.9463326930999756,-8.93595027923584
380989.01797164755,69.82640838623047,13.496824264526367,20.17523193359375,115.80691528320312,24.58,13.73164176940918,-21.73446273803711,1458,1605,10.622986793518066,0.781188428401947,-8.487049102783203
381089.01797164755,69.58106994628906,13.211792945861816,20.056354522705078,110.96725463867188,24.58,12.966657638549805,-20.22806167602539,1468,1606,10.224770545959473,0.8374424576759338,-8.368803024291992
381189.01797164755,69.25650024414062,13.117506980895996,19.897531509399414,109.38906860351562,24.58,11.760273933410645,-18.05674934387207,1479,1610,9.72964859008789,0.8077841401100159,-8.709441184997559
381289.01797164755,68.8136215209961,13.054277420043945,19.799541473388672,108.3370361328125,24.58,10.921516418457031,-16.7008056640625,1489,1614,9.060647010803223,0.826354444026947,-8.594304084777832
381389.01797164755,68.63993072509766,13.016180038452148,19.687274932861328,107.70562744140625,24.58,9.59073257446289,-14.683417320251465,1501,1620,8.4329252243042,0.7981311082839966,-8.55402946472168
381489.01797164755,68.75813293457031,12.642077445983887,19.61707878112793,101.6033935546875,24.58,8.627974510192871,-13.560527801513672,1509,1626,7.832543849945068,0.7389194369316101,-8.262412071228027
381589.01797164755,68.58393859863281,12.849824905395508,19.51616668701172,104.97012329101562,24.58,7.169678211212158,-12.238433837890625,1517,1636,7.034478187561035,0.6262784004211426,-8.472197532653809
381689.01797164755,68.83655548095703,13.243071556091309,19.461965560913086,111.4932861328125,24.58,6.200217247009277,-11.591200828552246,1520,1643,6.377151966094971,0.5079714059829712,-7.653383731842041
381789.01797164755,69.28707885742188,12.726885795593262,19.40513038635254,102.97116088867188,24.58,4.639610767364502,-11.00169849395752,1523,1655,5.786222457885742,0.6362705826759338,-7.233438014984131
381889.01797164755,69.95375061035156,13.274277687072754,19.388376235961914,112.01934814453125,24.58,3.5799405574798584,-10.699653625488281,1524,1664,5.426295280456543,0.341096431016922,-7.222103595733643
381989.01797164755,71.16602325439453,13.280513763427734,19.37847137451172,112.1246337890625,24.58,2.094609022140503,-10.445541381835938,1523,1676,5.052468299865723,0.33466073870658875,-7.0674214363098145
382089.01797164755,71.83269500732422,13.08592414855957,19.38963508605957,108.86294555664062,24.58,1.3296104669570923,-10.32911205291748,1522,1685,4.9404096603393555,0.7322123646736145,-7.373167514801025
382189.01797164755,73.42703247070312,13.305407524108887,19.43218231201172,112.54537963867188,24.58,0.6339942216873169,-10.198212623596191,1519,1697,5.035301208496094,0.782382071018219,-6.984227657318115
382289.01797164755,74.09370422363281,13.14901351928711,19.487918853759766,109.9151611328125,24.58,0.4682551324367523,-10.001917839050293,1550,1699,5.450936794281006,1.0413230657577515,-7.437497615814209
382389.01797164755,75.80448150634766,13.697654724121094,19.57684898376465,119.2789306640625,24.58,0.6011741161346436,-10.573972702026367,1750,1704,6.090704441070557,1.0070523023605347,-9.066298484802246
382489.01797164755,76.47115325927734,13.79397201538086,19.622997283935547,120.9622802734375,24.58,0.8018972277641296,-12.824305534362793,1747,1707,6.910029888153076,1.1499605178833008,-9.980433464050293
382589.01797164755,77.73831176757812,13.889622688293457,19.65932273864746,122.64566040039062,24.58,1.0670931339263916,-18.773113250732422,1696,1712,8.161585807800293,1.184045433998108,-10.426969528198242
382689.01797164755,78.40498352050781,13.655296325683594,19.643049240112305,118.5423583984375,24.58,1.1581289768218994,-23.66876983642578,1651,1717,9.810588836669922,1.4573814868927002,-10.85893726348877
382789.01797164755,81.52439880371094,13.527444839477539,19.618093490600586,116.33297729492188,24.58,1.3245108127593994,-30.86948585510254,1585,1729,11.615958213806152,1.7484312057495117,-11.937294960021973
382889.01797164755,82.19107055664062,13.447688102722168,19.571630477905273,114.96524047851562,24.58,1.5832898616790771,-34.997772216796875,1549,1738,13.181118965148926,2.0015716552734375,-12.841416358947754
382989.01797164755,85.80027770996094,13.4476900100708,19.489635467529297,114.96527099609375,24.58,2.4197940826416016,-39.09274673461914,1514,1746,14.16400146484375,2.9755544662475586,-14.600506782531738
383089.01797164755,86.46694946289062,13.5762939453125,19.432823181152344,117.1746826171875,24.58,3.3234939575195312,-40.50865936279297,1502,1748,14.54242992401123,2.7538442611694336,-14.575101852416992
383189.01797164755,87.7619857788086,13.949073791503906,19.362442016601562,123.69781494140625,24.58,4.7934699058532715,-42.030845642089844,1483,1744,14.986320495605469,2.5915863513946533,-12.878358840942383
383289.01797164755,88.42865753173828,14.020081520080566,19.317373275756836,124.96038818359375,24.58,5.754974365234375,-42.79201889038086,1476,1740,15.490804672241211,2.973365545272827,-12.7002534866333
383389.01797164755,89.60658264160156,13.805965423583984,19.24614143371582,121.1727294921875,24.58,7.251225471496582,-43.2213249206543,1472,1732,16.067432403564453,3.187976121902466,-12.989089012145996
383489.01797164755,89.57597351074219,13.757928848266602,19.191131591796875,120.33096313476562,24.58,8.314959526062012,-43.000587463378906,1474,1726,16.55770492553711,3.3254239559173584,-13.716036796569824
383589.01797164755,89.24557495117188,13.996448516845703,19.06540870666504,124.53945922851562,24.58,9.988561630249023,-42.63222122192383,1475,1711,16.84174919128418,3.2437667846679688,-13.962624549865723
383689.01797164755,88.72040557861328,14.149333953857422,18.959447860717773,127.27505493164062,24.58,11.177733421325684,-42.27709197998047,1480,1700,17.214378356933594,3.1303963661193848,-14.546311378479004
383789.01797164755,87.64292907714844,13.859806060791016,18.772817611694336,122.11965942382812,24.58,13.068232536315918,-41.48365783691406,1485,1679,17.612668991088867,3.2872064113616943,-14.69241714477539
383889.01797164755,86.97625732421875,13.883666038513184,18.598154067993164,122.54049682617188,24.58,14.318178176879883,-41.165321350097656,1488,1664,17.82769203186035,3.543483257293701,-16.68279457092285
383989.01797164755,84.0399169921875,12.765836715698242,18.33839988708496,103.6024169921875,24.58,16.022184371948242,-40.13068389892578,1499,1648,17.718246459960938,3.4532876014709473,-17.125598907470703
384089.01797164755,83.37324523925781,12.609305381774902,18.146625518798828,101.07730102539062,24.58,16.951221466064453,-38.969947814941406,1512,1631,17.28899574279785,3.388911247253418,-16.577844619750977
384189.01797164755,78.56477355957031,13.280508041381836,17.767623901367188,112.12454223632812,24.58,17.600671768188477,-37.817928314208984,1520,1613,16.786531448364258,1.7454020977020264,-14.804817199707031
384289.01797164755,77.89810180664062,13.533561706542969,17.487186431884766,116.43820190429688,24.58,17.518733978271484,-37.516475677490234,1523,1607,16.055408477783203,1.3842802047729492,-13.532827377319336
384389.01797164755,75.60742950439453,13.631041526794434,17.083377838134766,118.12161254882812,24.5,16.647958755493164,-36.801422119140625,1539,1604,15.400153160095215,0.8728251457214355,-12.05296802520752
384489.01797164755,74.94075775146484,13.496824264526367,16.842140197753906,115.80691528320312,24.48,15.905831336975098,-35.788909912109375,1556,1604,14.566946983337402,1.0275589227676392,-11.707717895507812
384589.01797164755,71.88945770263672,12.958841323852539,16.500593185424805,106.7587890625,24.48,14.423135757446289,-33.44847106933594,1589,1605,13.503414154052734,1.1409211158752441,-11.152019500732422
384689.01797164755,71.22278594970703,13.079604148864746,16.32206153869629,108.7578125,24.48,13.123733520507812,-32.137657165527344,1608,1607,12.248880386352539,1.466219186782837,-10.928450584411621
384789.01797164755,68.28364562988281,12.464093208312988,16.062816619873047,98.76263427734375,24.48,10.833656311035156,-30.95074462890625,1628,1613,11.005533218383789,1.2385168075561523,-10.682811737060547
384889.01797164755,67.61697387695312,12.517090797424316,15.932611465454102,99.60430908203125,24.48,9.095975875854492,-31.14651870727539,1623,1631,9.895964622497559,0.7493290901184082,-8.372969627380371
384989.01797164755,68.8436050415039,12.990728378295898,15.721695899963379,107.28482055664062,24.48,5.8585004806518555,-34.167884826660156,1575,1661,9.621585845947266,0.213229238986969,-6.644852638244629
385089.01797164755,69.5102767944336,13.022541046142578,15.60805606842041,107.8109130859375,24.48,3.648350477218628,-37.14157485961914,1537,1695,10.29518985748291,0.42776593565940857,-5.707401275634766
385189.01797164755,74.57317352294922,12.517093658447266,15.486919403076172,99.60433959960938,24.48,0.837380588054657,-40.867950439453125,1487,1742,11.576729774475098,0.5256012678146362,-5.648004055023193
385289.01797164755,76.58490753173828,13.149006843566895,15.459931373596191,109.91506958007812,24.48,-0.3736359477043152,-42.4131965637207,1468,1771,13.20327377319336,0.8444527983665466,-4.462423801422119
385389.01797164755,82.62016296386719,13.054271697998047,15.493854522705078,108.33694458007812,24.48,-0.7996836304664612,-43.12299728393555,1455,1794,14.954008102416992,1.5889111757278442,-5.299007892608643
385489.01797164755,83.75847625732422,13.149014472961426,15.539911270141602,109.91519165039062,24.48,-0.22743093967437744,-42.98883819580078,1451,1799,16.835737228393555,1.952854037284851,-7.137744426727295
385589.01797164755,86.8944320678711,12.791738510131836,15.569246292114258,104.02325439453125,24.48,1.65438973903656,-43.14389419555664,1428,1786,18.708778381347656,3.140082597732544,-12.209163665771484
385689.01797164755,87.09136199951172,12.920472145080566,15.486668586730957,106.12753295898438,24.48,3.4821035861968994,-43.52784729003906,1417,1778,19.337432861328125,3.82342267036438,-17.120929718017578
385789.01797164755,86.41111755371094,12.290266036987305,15.381545066833496,96.027099609375,24.48,6.811104774475098,-43.49747085571289,1396,1746,19.192018508911133,4.931463241577148,-18.552356719970703
385889.01797164755,85.74444580078125,11.99725341796875,15.29571533203125,91.5029296875,24.48,9.397671699523926,-42.168949127197266,1404,1714,18.213314056396484,5.286505222320557,-18.93426513671875
385989.01797164755,80.64167022705078,11.315763473510742,15.172660827636719,81.40274047851562,24.48,13.454570770263672,-39.36579132080078,1396,1654,17.66034507751465,4.679242134094238,-18.58678436279297
386089.01797164755,78.93022918701172,11.90030574798584,14.987957000732422,90.03005981445312,24.48,15.783157348632812,-37.94735336303711,1394,1624,17.499387741088867,3.1990420818328857,-17.96904754638672
386189.01797164755,74.1795883178711,12.290267944335938,14.629172325134277,96.02713012695312,24.48,18.687028884887695,-34.71537780761719,1405,1569,16.55259132385254,2.8522918224334717,-16.99494743347168
386289.01797164755,72.66079711914062,12.038565635681152,14.369507789611816,92.13418579101562,24.48,19.8792667388916,-31.907222747802734,1417,1525,14.894922256469727,2.545783519744873,-17.42984390258789
386389.01797164755,66.57837677001953,11.746331214904785,14.032695770263672,87.71539306640625,24.48,20.13262939453125,-27.995634078979492,1420,1475,12.742538452148438,1.9091641902923584,-14.280842781066895
386489.01797164755,65.15313720703125,11.682762145996094,13.821290016174316,86.7685546875,24.48,19.37112808227539,-25.41899871826172,1437,1472,10.448573112487793,1.3200061321258545,-11.877847671508789
386589.01797164755,61.096580505371094,12.11393928527832,13.513111114501953,93.29150390625,24.48,16.778411865234375,-20.92300796508789,1477,1473,7.968598365783691,0.5285589694976807,-9.714357376098633
386689.01797164755,60.42991638183594,12.290264129638672,13.325304985046387,96.02706909179688,24.48,14.083613395690918,-18.06178855895996,1505,1503,5.525161266326904,-0.16773293912410736,-7.6583452224731445
386789.01797164755,60.114418029785156,12.707359313964844,13.035567283630371,102.65542602539062,24.41,9.007573127746582,-14.822189331054688,1532,1553,3.1058413982391357,-0.9628238081932068,-5.271397590637207
386889.01797164755,60.78108215332031,12.952455520629883,12.887018203735352,106.65359497070312,24.38,5.1963958740234375,-13.498583793640137,1542,1613,1.2670326232910156,-0.9457460045814514,-3.1076674461364746
386989.01797164755,64.11294555664062,12.977984428405762,12.770238876342773,107.07443237304688,24.38,-0.44577935338020325,-13.795495986938477,1510,1677,0.342478483915329,-0.5765677690505981,0.31657108664512634
387089.01797164755,65.50983428955078,12.713873863220215,12.783315658569336,102.76071166992188,24.38,-3.5293054580688477,-15.02003288269043,1487,1715,0.4978674054145813,-0.03134963661432266,-1.2698036432266235
387189.01797164755,71.06719207763672,12.70736312866211,12.927297592163086,102.65548706054688,24.38,-6.8300604820251465,-16.211336135864258,1476,1782,1.5384804010391235,0.3782247006893158,-2.775134563446045
387289.01797164755,72.5005874633789,12.791736602783203,13.079890251159668,104.02322387695312,24.38,-8.140437126159668,-16.157024383544922,1481,1807,3.059723138809204,0.5847856998443604,-3.1752188205718994
387389.01797164755,77.872314453125,13.054275512695312,13.338850021362305,108.33700561523438,24.38,-8.506362915039062,-15.659361839294434,1485,1825,5.109970569610596,0.9453849196434021,-5.3327765464782715
387489.01797164755,78.55416870117188,13.111194610595703,13.538540840148926,109.2838134765625,24.38,-7.605471611022949,-15.186084747314453,1490,1825,7.19671106338501,1.5616945028305054,-7.9854960441589355
387589.01797164755,81.08186340332031,13.11750602722168,13.806910514831543,109.3890380859375,24.38,-4.860012531280518,-13.851759910583496,1506,1800,9.512284278869629,2.145740270614624,-10.191825866699219
387689.01797164755,81.11328125,12.888409614562988,13.949413299560547,105.60147094726562,24.38,-2.2732887268066406,-13.043733596801758,1506,1778,11.439911842346191,2.688591957092285,-13.667054176330566
387789.01797164755,80.03129577636719,12.707366943359375,14.04964828491211,102.65554809570312,24.38,2.1769967079162598,-12.756608009338379,1487,1729,12.798707962036133,2.7419564723968506,-16.32521629333496
387889.01797164755,79.3646240234375,12.357409477233887,14.040567398071289,97.07919311523438,24.38,5.0904951095581055,-12.58260726928711,1485,1693,13.538493156433105,3.0182433128356934,-18.122940063476562
387989.01797164755,75.44824981689453,12.437507629394531,13.912480354309082,98.34176635742188,24.38,8.777359962463379,-12.146658897399902,1459,1647,13.021923065185547,2.870264768600464,-18.40538787841797
388089.01797164755,74.62334442138672,12.862701416015625,13.769939422607422,105.18060302734375,24.38,10.527271270751953,-11.855704307556152,1446,1614,12.18867301940918,2.0473711490631104,-17.8143310546875
388189.01797164755,70.01342010498047,12.752866744995117,13.515968322753906,103.39199829101562,24.38,12.109359741210938,-11.006566047668457,1436,1581,10.712732315063477,1.1613092422485352,-16.088699340820312
388289.01797164755,69.34674835205078,13.249320983886719,13.330307006835938,111.59854125976562,24.38,12.60288143157959,-9.996808052062988,1443,1567,8.918611526489258,0.7745431065559387,-14.203858375549316
388389.01797164755,65.32757568359375,13.564099311828613,13.047202110290527,116.96426391601562,24.38,12.633744239807129,-7.871446132659912,1462,1545,7.169910430908203,0.2460160106420517,-13.159233093261719
388489.01797164755,64.66090393066406,13.205531120300293,12.862870216369629,110.86209106445312,24.38,12.1201171875,-6.356914043426514,1483,1544,5.480127334594727,-0.21353188157081604,-11.3109130859375
388589.01797164755,62.59263610839844,13.149014472961426,12.578630447387695,109.91519165039062,24.38,10.649792671203613,-3.9561922550201416,1517,1549,3.974414348602295,-0.42095860838890076,-9.551424980163574
388689.01797164755,62.19680404663086,13.496824264526367,12.40788745880127,115.80691528320312,24.38,9.285629272460938,-2.639414072036743,1533,1568,2.7376139163970947,-0.5207964181900024,-7.840060234069824
388789.01797164755,62.610530853271484,13.502954483032227,12.180541038513184,115.91213989257812,24.38,6.700864791870117,-1.7143080234527588,1540,1603,1.91398024559021,-0.6748177409172058,-6.116971015930176
388889.01797164755,63.27719497680664,13.085927963256836,12.066535949707031,108.86300659179688,24.38,4.750429630279541,-1.6115374565124512,1539,1629,1.3964381217956543,-0.4473573565483093,-5.109618186950684
388989.01797164755,65.60102844238281,13.600652694702148,11.974364280700684,117.59552001953125,24.38,1.7946858406066895,-1.7854712009429932,1531,1669,1.286431908607483,-0.43749308586120605,-3.923336982727051
389089.01797164755,66.2677001953125,13.11750602722168,11.959466934204102,109.3890380859375,24.38,0.14976507425308228,-2.023369073867798,1520,1698,1.9070512056350708,-0.18117374181747437,-3.8814315795898438
389189.01797164755,69.99554443359375,12.687813758850098,12.022492408752441,102.33987426757812,24.38,-1.705182433128357,-2.575592041015625,1494,1730,2.9175865650177,0.11357416212558746,-4.3330488204956055
389289.01797164755,70.66221618652344,12.655159950256348,12.11069393157959,101.81378173828125,24.38,-2.3258743286132812,-3.0187418460845947,1476,1742,4.242559909820557,0.6187852025032043,-5.56622314453125
389389.01797164755,73.80472564697266,12.824037551879883,12.27724552154541,104.54922485351562,24.38,-2.226383686065674,-3.6090588569641113,1446,1755,5.727380275726318,0.9515421390533447,-7.271543502807617
389489.01797164755,74.47139739990234,13.398369789123535,12.389467239379883,114.12353515625,24.38,-1.493363380432129,-3.728393077850342,1434,1750,7.1808319091796875,1.2041491270065308,-8.774880409240723
389589.01797164755,75.604736328125,13.472284317016602,12.541120529174805,115.38616943359375,24.38,0.43052494525909424,-3.167232036590576,1423,1731,8.702991485595703,1.6295791864395142,-10.33917236328125
389689.01797164755,75.67457580566406,13.243071556091309,12.620013236999512,111.4932861328125,24.38,2.089686155319214,-2.2922191619873047,1426,1715,9.741544723510742,1.9823119640350342,-11.688815116882324
389789.01797164755,75.23469543457031,12.958843231201172,12.713342666625977,106.75881958007812,24.38,4.880795478820801,-0.5473695397377014,1430,1682,10.510759353637695,2.167262315750122,-13.517667770385742
389889.01797164755,74.56802368164062,12.830496788024902,12.74011516571045,104.65457153320312,24.38,6.7004547119140625,0.6720848679542542,1438,1659,10.739055633544922,2.348923683166504,-14.297277450561523
389989.01797164755,72.69540405273438,12.655159950256348,12.734970092773438,101.81378173828125,24.38,9.030892372131348,2.8280246257781982,1458,1623,10.353432655334473,2.168062448501587,-14.596529960632324
390089.01797164755,72.02873229980469,12.726884841918945,12.707643508911133,102.97113037109375,24.38,10.182482719421387,4.389187812805176,1478,1605,9.57647705078125,2.237456798553467,-14.153290748596191
390189.01797164755,69.60267639160156,12.694334983825684,12.619857788085938,102.44509887695312,24.38,11.327719688415527,6.756989002227783,1512,1582,8.570188522338867,1.7371176481246948,-13.711971282958984
390289.01797164755,68.93600463867188,12.791736602783203,12.556568145751953,104.02322387695312,24.38,11.64940071105957,8.030367851257324,1532,1575,7.453339576721191,1.4029351472854614,-12.791268348693848
390389.01797164755,67.22323608398438,12.583026885986328,12.443570137023926,100.65643310546875,24.38,11.516972541809082,9.21528148651123,1554,1565,6.260065078735352,1.0825315713882446,-11.858192443847656
390489.01797164755,66.55656433105469,12.563282012939453,12.372745513916016,100.34078979492188,24.38,11.056382179260254,9.404780387878418,1557,1570,5.673864364624023,0.9356335401535034,-10.673945426940918
390589.01797164755,66.25272369384766,12.390850067138672,12.265361785888672,97.60531616210938,24.38,9.92492389678955,9.003191947937012,1556,1576,4.69990348815918,0.7648316025733948,-8.786486625671387
390689.01797164755,66.45021057128906,12.64862060546875,12.207062721252441,101.70858764648438,24.38,8.973312377929688,8.506094932556152,1552,1594,4.014062881469727,0.7070658206939697,-8.15332317352295
390789.01797164755,66.97137451171875,12.62242317199707,12.148917198181152,101.2877197265625,24.38,7.314164161682129,7.685333728790283,1540,1617,3.4791314601898193,0.52350252866745,-7.489984035491943
390889.01797164755,67.63804626464844,12.849828720092773,12.140340805053711,104.97018432617188,24.38,6.081906795501709,7.058863639831543,1530,1633,3.3217544555664062,0.6009162664413452,-6.227041721343994
390989.01797164755,69.39510345458984,12.687813758850098,12.174161911010742,102.33987426757812,24.38,4.279101848602295,6.308667182922363,1514,1656,3.428788661956787,0.8301215767860413,-6.0747151374816895
391089.01797164755,70.06177520751953,12.759354591369629,12.230237007141113,103.49722290039062,24.38,3.24054217338562,5.621727466583252,1493,1673,3.8359198570251465,0.9282379150390625,-5.405714511871338
391189.01797164755,73.03076171875,12.817587852478027,12.361908912658691,104.444091796875,24.38,2.0717086791992188,4.614838123321533,1468,1695,4.829705238342285,1.0592174530029297,-5.820404529571533
391289.01797164755,73.69743347167969,12.759350776672363,12.474838256835938,103.49716186523438,24.28,1.617518663406372,4.471285343170166,1464,1707,5.981425762176514,1.2716115713119507,-6.343440532684326
391389.01797164755,76.81439971923828,12.862703323364258,12.677970886230469,105.18063354492188,24.36,1.5579205751419067,4.801349639892578,1457,1715,7.028178691864014,1.6507195234298706,-7.212612628936768
391489.01797164755,77.48107147216797,12.830496788024902,12.807723045349121,104.65457153320312,24.38,1.9216907024383545,5.231650352478027,1459,1717,7.911764621734619,1.8885736465454102,-9.249234199523926
391589.01797164755,78.72940826416016,13.274280548095703,13.000103950500488,112.0194091796875,24.38,2.9195923805236816,5.97710657119751,1454,1713,8.512555122375488,2.2379188537597656,-10.147050857543945
391689.01797164755,79.1366195678711,13.367457389831543,13.118907928466797,113.5975341796875,24.32,3.7594447135925293,6.398557186126709,1454,1702,9.00697135925293,2.420603036880493,-10.993288040161133
391789.01797164755,79.34722137451172,13.180438995361328,13.285201072692871,110.44119262695312,24.28,5.141817092895508,7.298901081085205,1462,1694,9.430065155029297,2.5173866748809814,-11.475116729736328
391889.01797164755,79.04031372070312,12.752866744995117,13.37180233001709,103.39199829101562,24.28,6.149557590484619,8.436220169067383,1479,1683,9.555137634277344,2.5590765476226807,-12.773833274841309
391989.01797164755,78.24105834960938,12.958843231201172,13.490123748779297,106.75881958007812,24.28,7.803822040557861,10.568181037902832,1509,1658,9.178049087524414,2.6223747730255127,-13.950822830200195
392089.01797164755,77.57438659667969,13.022541999816895,13.536656379699707,107.81094360351562,24.28,8.868428230285645,11.69665813446045,1522,1649,8.606200218200684,2.6504316329956055,-14.024236679077148
392189.01797164755,75.85256958007812,12.88840389251709,13.595929145812988,105.60137939453125,24.28,10.295894622802734,12.836494445800781,1541,1630,8.034126281738281,2.5230722427368164,-14.208033561706543
392289.01797164755,75.18589782714844,12.888409614562988,13.60595703125,105.60147094726562,24.28,10.991559982299805,13.183965682983398,1547,1620,7.293265342712402,2.1368043422698975,-13.67546272277832
392389.01797164755,73.12155151367188,13.2117919921875,13.60352611541748,110.96722412109375,24.28,11.672466278076172,13.277417182922363,1561,1607,6.378479957580566,1.9396215677261353,-12.588874816894531
392489.01797164755,72.45487976074219,13.243073463439941,13.598360061645508,111.49331665039062,24.28,11.79546070098877,13.207985877990723,1567,1602,5.511523246765137,1.6499277353286743,-11.700350761413574
392589.01797164755,71.32471466064453,12.856266021728516,13.565427780151367,105.07537841796875,24.28,11.683032989501953,12.761323928833008,1569,1592,4.805333137512207,1.4810727834701538,-10.811529159545898
392689.01797164755,70.76920318603516,13.016183853149414,13.553924560546875,107.7056884765625,24.28,11.44869613647461,12.029834747314453,1561,1590,4.216789722442627,1.5361801385879517,-9.718719482421875
392789.01797164755,70.31490325927734,13.016185760498047,13.503808975219727,107.70571899414062,24.28,10.902458190917969,10.4641695022583,1545,1596,3.922624349594116,0.9425685405731201,-9.432862281799316
392889.01797164755,70.31138610839844,12.965226173400879,13.467628479003906,106.864013671875,24.28,10.403287887573242,9.384885787963867,1533,1594,3.849414110183716,0.9083289504051208,-8.491317749023438
392989.01797164755,70.39920806884766,13.016183853149414,13.424015045166016,107.7056884765625,24.28,9.486353874206543,7.6856818199157715,1507,1603,3.9337034225463867,0.939981997013092,-8.038514137268066
393089.01797164755,70.87030792236328,12.952457427978516,13.408340454101562,106.65362548828125,24.28,8.799052238464355,6.57206916809082,1493,1607,4.276148319244385,1.0942223072052002,-7.447872638702393
393189.01797164755,71.57536315917969,12.984359741210938,13.413259506225586,107.17965698242188,24.28,7.704283714294434,5.518230438232422,1479,1622,4.693392753601074,1.219449758529663,-6.805755138397217
393289.01797164755,72.24203491210938,12.583028793334961,13.444520950317383,100.65646362304688,24.28,6.978879928588867,5.24654483795166,1476,1633,5.071915149688721,1.2111550569534302,-6.952974796295166
393389.01797164755,73.63506317138672,13.09225082397461,13.518569946289062,108.96823120117188,24.28,5.778645992279053,5.458340644836426,1480,1653,5.450308322906494,1.3536581993103027,-6.5396223068237305
393489.01797164755,74.3017349243164,13.117506980895996,13.582656860351562,109.38906860351562,24.28,4.984134674072266,5.884225368499756,1485,1663,5.6000566482543945,1.3860124349594116,-6.761892318725586
393589.01797164755,76.03912353515625,12.926874160766602,13.690202713012695,106.23272705078125,24.28,4.046641826629639,6.562379837036133,1491,1677,5.778807163238525,1.3789087533950806,-8.43174934387207
393689.01797164755,76.35203552246094,12.894829750061035,13.803478240966797,105.70669555664062,24.28,3.6977994441986084,6.52980375289917,1481,1685,5.407527446746826,1.9147348403930664,-9.0298433303833
393789.01797164755,77.15103149414062,12.370798110961914,13.984752655029297,97.2896728515625,24.28,3.508309841156006,6.20797061920166,1485,1687,5.8318095207214355,2.0514934062957764,-9.158825874328613
393889.01797164755,76.48435974121094,12.517090797424316,14.137946128845215,99.60430908203125,24.28,3.78759503364563,6.4260406494140625,1485,1684,5.494837760925293,3.075645923614502,-13.52731990814209
393989.01797164755,74.83043670654297,12.437505722045898,14.3466215133667,98.34173583984375,24.28,4.500491619110107,6.200649738311768,1475,1674,4.778722286224365,2.523707628250122,-13.128263473510742
394089.01797164755,74.16376495361328,12.778794288635254,14.454368591308594,103.81283569335938,24.28,5.161502361297607,6.108081340789795,1478,1673,4.27733039855957,2.334249258041382,-13.028522491455078
394189.01797164755,71.58707427978516,12.79820728302002,14.576177597045898,104.12847900390625,24.28,6.1809983253479,6.703571796417236,1493,1652,3.669173240661621,1.940987229347229,-12.450289726257324
394289.01797164755,70.92040252685547,12.576452255249023,14.627754211425781,100.55126953125,24.28,6.788123607635498,7.610123634338379,1511,1644,3.3539509773254395,1.9428424835205078,-13.083108901977539
394389.01797164755,68.8257064819336,12.497244834899902,14.69686508178711,99.2886962890625,24.28,7.6478376388549805,9.138114929199219,1534,1632,2.7562191486358643,1.6660364866256714,-11.116734504699707
394489.01797164755,68.1590347290039,12.390846252441406,14.72421646118164,97.60525512695312,24.28,8.09355354309082,9.85504150390625,1547,1622,2.6835665702819824,1.591450572013855,-10.287879943847656
394589.01797164755,67.27149200439453,12.222750663757324,14.743247985839844,94.9749755859375,24.28,8.576518058776855,10.108006477355957,1553,1617,2.679810047149658,1.3273733854293823,-9.781706809997559
394689.01797164755,67.25276947021484,12.404196739196777,14.715255737304688,97.81570434570312,24.23,8.663782119750977,9.549345016479492,1543,1614,3.1614673137664795,0.7516900897026062,-8.796626091003418
394789.01797164755,67.41680145263672,12.681288719177246,14.638093948364258,102.23464965820312,24.19,8.683920860290527,8.670848846435547,1546,1610,3.6991560459136963,0.584567129611969,-8.238024711608887
394889.01797164755,66.76892852783203,12.720381736755371,14.59807014465332,102.86593627929688,24.19,8.601919174194336,8.590818405151367,1548,1604,3.77700138092041,0.9807491898536682,-11.746254920959473
394989.01797164755,66.13406372070312,12.589601516723633,14.535806655883789,100.76165771484375,24.19,8.405546188354492,7.750226974487305,1539,1602,3.435619592666626,0.9324241280555725,-10.4069242477417
395089.01797164755,65.47313690185547,12.364104270935059,14.48412036895752,97.18441772460938,24.19,8.255324363708496,6.986021518707275,1532,1610,3.278040647506714,0.5270511507987976,-9.540079116821289
395189.01797164755,64.5363540649414,12.072887420654297,14.43316650390625,92.6602783203125,24.19,7.87770414352417,6.159150123596191,1529,1607,2.992377996444702,1.0299187898635864,-10.04430866241455
395289.01797164755,63.869686126708984,12.045434951782227,14.413288116455078,92.23934936523438,24.19,7.664931774139404,5.145592212677002,1506,1602,2.637906312942505,1.1504493951797485,-10.899209022521973
395389.01797164755,61.830902099609375,11.590314865112305,14.348182678222656,85.4007568359375,24.19,7.3213372230529785,3.4365415573120117,1588,1596,2.2472081184387207,0.9829234480857849,-11.448541641235352
395489.01797164755,61.16423797607422,12.648616790771484,14.27085018157959,101.70852661132812,24.19,6.923318862915039,2.8302581310272217,1703,1602,2.001380205154419,0.2938184142112732,-9.519067764282227
395589.01797164755,60.92141342163086,12.483992576599121,14.118809700012207,99.0782470703125,24.19,6.2341156005859375,0.3416847884654999,1695,1607,2.049269199371338,-0.14834892749786377,-7.13718318939209
395689.01797164755,61.21488952636719,12.550102233886719,14.031495094299316,100.13037109375,24.19,5.6477155685424805,-2.667614459991455,1654,1609,2.8526556491851807,0.17388635873794556,-8.357688903808594
395789.01797164755,61.302066802978516,12.503864288330078,13.910933494567871,99.3939208984375,24.19,4.827134609222412,-8.174622535705566,1583,1622,3.434638500213623,0.14416921138763428,-9.041403770446777
395889.01797164755,61.96873092651367,12.583028793334961,13.845784187316895,100.65646362304688,24.19,4.212152004241943,-11.713403701782227,1535,1637,4.041782379150391,0.32250094413757324,-7.277461051940918
395989.01797164755,62.88630294799805,12.323882102966309,13.806412696838379,96.55313110351562,24.19,3.3480873107910156,-16.046974182128906,1482,1657,4.4005584716796875,0.6950246691703796,-8.01621150970459
396089.01797164755,63.5529670715332,12.004152297973633,13.795084953308105,91.60818481445312,24.19,2.786181926727295,-16.919767379760742,1485,1669,4.84664249420166,0.4749511778354645,-6.420995712280273
396189.01797164755,65.56822204589844,11.935023307800293,13.819286346435547,90.55612182617188,24.19,2.1293461322784424,-15.611754417419434,1510,1679,5.206222057342529,0.572943389415741,-7.079548358917236
396289.01797164755,66.23489379882812,11.962716102600098,13.854596138000488,90.97683715820312,24.19,1.8325848579406738,-14.294137001037598,1530,1692,5.439976692199707,0.6876218914985657,-6.609499931335449
396389.01797164755,67.33322143554688,12.031695365905762,13.931367874145508,92.029052734375,24.19,1.561607003211975,-12.119497299194336,1561,1692,5.634744167327881,0.9825056791305542,-7.849133014678955
396489.01797164755,67.78948974609375,12.263306617736816,13.98890495300293,95.60629272460938,24.19,1.3802765607833862,-10.983534812927246,1574,1690,5.780634880065918,1.0832421779632568,-9.321820259094238
396589.01797164755,68.33287811279297,12.615867614746094,14.059714317321777,101.18252563476562,24.19,1.1728874444961548,-10.662431716918945,1575,1695,5.800267219543457,0.8225156664848328,-8.947310447692871
396689.01797164755,68.98725128173828,12.510479927062988,14.087587356567383,99.49911499023438,24.19,1.15155827999115,-10.957283020019531,1573,1697,6.165531635284424,0.7456859946250916,-9.163422584533691
396789.01797164755,69.52538299560547,12.364104270935059,14.127670288085938,97.18441772460938,24.19,1.4089281558990479,-11.88943862915039,1555,1692,6.654289245605469,0.9338672757148743,-9.59774112701416
396889.01797164755,70.0637435913086,13.342671394348145,14.120748519897461,113.17666625976562,24.19,1.7945985794067383,-12.868218421936035,1539,1688,7.420283794403076,0.5634859204292297,-10.377263069152832
396989.01797164755,70.6365966796875,13.727826118469238,14.07311725616455,119.80496215820312,24.19,2.605355739593506,-14.544285774230957,1511,1684,8.374363899230957,0.5370370149612427,-10.652824401855469
397089.01797164755,70.61725616455078,13.76394271850586,14.017366409301758,120.43618774414062,24.19,3.396880865097046,-15.510821342468262,1497,1678,9.155350685119629,0.6209998726844788,-11.594395637512207
397189.01797164755,70.30281829833984,13.721792221069336,13.90043830871582,119.69967651367188,24.19,4.7788801193237305,-16.559202194213867,1472,1663,9.73652172088623,0.757863461971283,-12.390544891357422
397289.01797164755,69.74889373779297,13.727826118469238,13.794391632080078,119.80496215820312,24.19,5.838642120361328,-16.813129425048828,1465,1649,10.112092018127441,0.6985104084014893,-12.278732299804688
397389.01797164755,68.90023040771484,13.50295639038086,13.63123607635498,115.91217041015625,24.19,7.587318420410156,-16.71691131591797,1449,1624,10.424141883850098,0.9513691663742065,-13.042153358459473
397489.01797164755,68.23355865478516,13.085931777954102,13.500693321228027,108.86306762695312,24.19,8.826311111450195,-16.47966194152832,1447,1614,10.465758323669434,0.7058010101318359,-13.421749114990234
397589.01797164755,66.1277084350586,13.27427864074707,13.247275352478027,112.01937866210938,24.19,10.401786804199219,-15.693342208862305,1443,1582,10.148938179016113,0.7565807104110718,-13.210700035095215
397689.01797164755,65.4610366821289,13.022541046142578,13.064802169799805,107.8109130859375,24.19,11.208786964416504,-14.954445838928223,1446,1553,9.265617370605469,0.6240746974945068,-13.338403701782227
397789.01797164755,62.74297332763672,13.041586875915527,12.788330078125,108.12649536132812,24.19,11.785052299499512,-13.855932235717773,1443,1543,8.40240478515625,0.13817672431468964,-12.061518669128418
397889.01797164755,62.07630920410156,12.681283950805664,12.616071701049805,102.23455810546875,24.19,11.68181324005127,-12.941131591796875,1454,1540,7.505322456359863,0.26879268884658813,-10.635871887207031
397989.01797164755,60.963714599609375,12.759354591369629,12.371600151062012,103.49722290039062,24.19,10.875605583190918,-11.247873306274414,1472,1535,6.6059465408325195,0.1414937525987625,-9.44204044342041
398089.01797164755,60.85442352294922,12.759354591369629,12.214503288269043,103.49722290039062,24.19,9.951586723327637,-10.044764518737793,1489,1555,5.771563529968262,-0.1698145717382431,-8.318395614624023
398189.01797164755,61.10126495361328,12.477363586425781,12.029108047485352,98.97305297851562,24.19,8.041425704956055,-8.301874160766602,1518,1594,5.006847858428955,-0.1751057356595993,-7.086310386657715
398289.01797164755,61.76792907714844,11.9972562789917,11.941911697387695,91.50296020507812,24.19,6.356967449188232,-7.407965660095215,1530,1618,4.498867988586426,0.02041434496641159,-6.135273456573486
398389.01797164755,63.430763244628906,12.26330280303955,11.87978744506836,95.60623168945312,24.19,3.510589361190796,-6.354245662689209,1550,1657,4.275437355041504,-0.016888048499822617,-4.872011661529541
398489.01797164755,64.09742736816406,12.785268783569336,11.896842956542969,103.91806030273438,24.19,1.7954291105270386,-5.671308994293213,1567,1688,4.358165264129639,0.36386147141456604,-4.4907050132751465
398589.01797164755,67.8169174194336,12.53030776977539,11.981546401977539,99.81475830078125,24.19,-0.5389680862426758,-5.162519931793213,1569,1726,5.015277862548828,0.41765937209129333,-4.40309476852417
398689.01797164755,68.48358917236328,12.444158554077148,12.076309204101562,98.44696044921875,24.19,-1.6691510677337646,-5.453124046325684,1558,1745,6.071056842803955,0.5548264980316162,-4.688695430755615
398789.01797164755,72.91085052490234,12.849828720092773,12.260980606079102,104.97018432617188,24.12,-2.4191508293151855,-6.615753650665283,1532,1764,7.657723426818848,0.9459483623504639,-5.604984760284424
398889.01797164755,73.57752227783203,12.470728874206543,12.410404205322266,98.86782836914062,24.13,-2.1903698444366455,-7.773512363433838,1507,1762,9.37099838256836,1.5892988443374634,-7.278406620025635
398989.01797164755,76.36766052246094,12.364104270935059,12.660920143127441,97.18441772460938,24.17,-0.8225231170654297,-8.601119041442871,1500,1749,10.899031639099121,2.3107917308807373,-9.740567207336426
399089.01797164755,77.03433227539062,12.256552696228027,12.803994178771973,95.50100708007812,24.09,0.5661532878875732,-8.732880592346191,1484,1733,12.291498184204102,2.693654775619507,-11.222620964050293
399189.01797164755,76.92029571533203,12.364104270935059,12.940649032592773,97.18441772460938,24.09,3.29738712310791,-10.513472557067871,1424,1704,13.159187316894531,2.7868735790252686,-13.49915599822998
399289.01797164755,76.25362396240234,12.031691551208496,12.97251033782959,92.02899169921875,24.09,5.327948570251465,-11.293509483337402,1414,1680,13.485963821411133,2.793384313583374,-15.259037017822266
399389.01797164755,74.89788818359375,12.364107131958008,12.957036018371582,97.1844482421875,24.09,8.101792335510254,-10.677531242370605,1414,1640,13.287430763244629,2.6033313274383545,-13.950183868408203
399489.01797164755,74.23121643066406,12.543508529663086,12.924510955810547,100.02517700195312,24.09,9.681130409240723,-9.500332832336426,1421,1612,12.734546661376953,2.657553195953369,-15.048967361450195
399589.01797164755,72.0330581665039,12.862701416015625,12.803255081176758,105.18060302734375,24.09,11.380165100097656,-7.361453533172607,1441,1582,11.770383834838867,2.1207146644592285,-14.609594345092773
399689.01797164755,71.36638641357422,12.694334983825684,12.709473609924316,102.44509887695312,24.09,12.076480865478516,-5.7423906326293945,1463,1567,10.55654239654541,1.9706082344055176,-13.81035041809082
399789.01797164755,69.08467102050781,12.984359741210938,12.562365531921387,107.17965698242188,24.09,12.402084350585938,-3.279956579208374,1501,1555,9.258078575134277,1.3859667778015137,-12.216341018676758
399889.01797164755,68.4317855834961,13.305413246154785,12.464035034179688,112.54547119140625,24.09,12.044429779052734,-1.5827746391296387,1528,1564,8.209854125976562,1.0516176223754883,-10.08181095123291
399989.01797164755,68.53524017333984,12.477363586425781,12.330894470214844,98.97305297851562,24.09,10.764681816101074,0.4193408489227295,1559,1580,7.4498748779296875,0.780726432800293,-8.526559829711914
400089.01797164755,68.93710327148438,12.9204683303833,12.256915092468262,106.12747192382812,24.09,9.592672348022461,1.1056541204452515,1571,1604,6.755766868591309,0.5408706068992615,-7.970286846160889
400189.01797164755,69.84358978271484,13.466134071350098,12.170287132263184,115.28085327148438,24.09,7.4999589920043945,1.0179945230484009,1566,1638,6.023261547088623,0.4984070062637329,-6.860075950622559
400289.01797164755,70.51026153564453,12.958837509155273,12.128418922424316,106.75872802734375,24.09,6.046665191650391,0.4540390372276306,1556,1653,5.812495708465576,0.5740009546279907,-6.9859161376953125
400389.01797164755,72.2439193725586,12.81758975982666,12.125935554504395,104.44412231445312,24.09,4.152001857757568,-0.9433761835098267,1536,1683,5.540046215057373,0.42355841398239136,-6.449420928955078
400489.01797164755,72.91059112548828,12.503863334655762,12.17234992980957,99.39389038085938,24.09,3.1845695972442627,-1.8196368217468262,1521,1697,5.757400989532471,1.1773457527160645,-7.451056957244873
400589.01797164755,75.21680450439453,12.390846252441406,12.279210090637207,97.60525512695312,24.09,2.5063493251800537,-2.556814670562744,1524,1720,6.385476112365723,1.1924376487731934,-6.014126300811768
400689.01797164755,75.88347625732422,12.856264114379883,12.386148452758789,105.07534790039062,24.09,2.3177969455718994,-2.0031912326812744,1540,1724,7.69717264175415,1.4590213298797607,-5.690430164337158
400789.01797164755,78.4922866821289,12.154864311218262,12.658361434936523,93.92291259765625,24.09,2.672090530395508,-0.6995946764945984,1550,1725,8.912888526916504,2.8446195125579834,-7.261455059051514
400889.01797164755,79.1589584350586,12.283527374267578,12.819332122802734,95.92184448242188,24.09,3.034804344177246,-1.2287846803665161,1525,1710,10.213506698608398,2.5765175819396973,-9.798588752746582
400989.01797164755,79.97119903564453,12.739875793457031,12.931931495666504,103.18145751953125,24.09,4.355525016784668,-3.5868775844573975,1465,1700,10.972890853881836,1.740150809288025,-10.937658309936523
401089.01797164755,79.31907653808594,13.37364673614502,12.927123069763184,113.7027587890625,24.09,5.6051716804504395,-5.54127836227417,1476,1683,11.43764877319336,2.0284674167633057,-12.816240310668945
401189.01797164755,77.79873657226562,12.707359313964844,12.918835639953613,102.65542602539062,24.09,7.955694675445557,-7.019340991973877,1747,1645,11.723016738891602,3.052985906600952,-16.511384963989258
401289.01797164755,77.13206481933594,12.337305068969727,12.873106956481934,96.76358032226562,24.09,9.344167709350586,-9.656013488769531,1709,1637,10.613898277282715,2.709477424621582,-16.822690963745117
401389.01797164755,72.40782928466797,12.249799728393555,12.774928092956543,95.39581298828125,24.09,10.279241561889648,-16.21086883544922,1607,1630,9.235832214355469,2.514174461364746,-16.040868759155273
401489.01797164755,71.74115753173828,12.430851936340332,12.68265151977539,98.23654174804688,24.09,10.416876792907715,-20.3382511138916,1543,1622,7.435329914093018,2.066120147705078,-15.166267395019531
401589.01797164755,68.81810760498047,11.990357398986816,12.57007884979248,91.39776611328125,24.09,10.419195175170898,-24.58357810974121,1477,1621,5.551753520965576,2.1056418418884277,-14.7896089553833
401689.01797164755,68.15143585205078,12.364104270935059,12.510128021240234,97.18441772460938,24.09,10.420763969421387,-25.959211349487305,1448,1640,3.5225090980529785,1.6966578960418701,-11.864542007446289
401789.01797164755,66.21647644042969,12.1139497756958,12.417816162109375,93.29165649414062,24.09,10.451851844787598,-26.667072296142578,1420,1630,2.0522477626800537,1.1699330806732178,-10.818787574768066
401889.01797164755,65.7271957397461,12.543508529663086,12.315138816833496,100.02517700195312,24.09,10.559638977050781,-26.276432037353516,1426,1624,1.438037633895874,0.314364492893219,-8.564681053161621
401989.01797164755,65.72582244873047,12.364104270935059,12.170949935913086,97.18441772460938,24.09,10.813264846801758,-24.139554977416992,1456,1614,1.7152155637741089,0.5387359857559204,-7.188084602355957
402089.01797164755,65.31327056884766,12.364104270935059,12.117635726928711,97.18441772460938,24.06,11.071794509887695,-22.015106201171875,1499,1604,2.371195077896118,1.0636471509933472,-7.9959330558776855
402189.01797164755,63.83030319213867,11.086753845214844,12.063653945922852,78.14120483398438,23.99,11.161262512207031,-18.37880516052246,1548,1583,2.4135024547576904,1.217537760734558,-9.477365493774414
402289.01797164755,63.163639068603516,11.395918846130371,11.990804672241211,82.56005859375,23.99,10.689316749572754,-17.186941146850586,1553,1567,2.0952677726745605,0.5798400640487671,-10.632393836975098
402389.01797164755,62.22673034667969,12.290264129638672,11.873114585876465,96.02706909179688,23.99,9.292092323303223,-17.236743927001953,1541,1600,1.3480072021484375,0.44387292861938477,-7.226378440856934
402489.01797164755,62.893394470214844,12.370794296264648,11.824880599975586,97.28961181640625,23.99,7.942478179931641,-17.402843475341797,1542,1615,1.330881118774414,0.35960471630096436,-6.375762939453125
402589.01797164755,63.96428298950195,12.161667823791504,11.745216369628906,94.028076171875,23.99,5.586366176605225,-17.37786293029785,1539,1655,1.606347918510437,0.4115488529205322,-6.592844009399414
402689.01797164755,64.63095092773438,12.510479927062988,11.733758926391602,99.49911499023438,23.99,3.865267038345337,-17.541044235229492,1531,1689,1.4741734266281128,0.2809670567512512,-4.840773105621338
402789.01797164755,67.29136657714844,12.283529281616211,11.745625495910645,95.921875,23.99,1.4754210710525513,-18.00592803955078,1516,1724,2.2422001361846924,0.23537984490394592,-4.4451985359191895
402889.01797164755,67.95803833007812,12.720379829406738,11.81781005859375,102.86590576171875,23.99,0.16829003393650055,-18.580097198486328,1500,1740,3.3175864219665527,0.8083563446998596,-4.919403553009033
402989.01797164755,71.95344543457031,12.713871955871582,11.971803665161133,102.76068115234375,23.99,-1.0391438007354736,-19.51710319519043,1481,1765,4.85653018951416,0.9713068604469299,-6.184817314147949
403089.01797164755,72.6201171875,12.88840389251709,12.089737892150879,105.60137939453125,23.99,-1.147872805595398,-19.957603454589844,1471,1773,6.145296096801758,1.2886687517166138,-7.4268999099731445
403189.01797164755,74.81761932373047,12.926874160766602,12.276407241821289,106.23272705078125,23.99,-0.1607358455657959,-20.309316635131836,1459,1762,7.764585971832275,1.685550570487976,-9.476139068603516
403289.01797164755,74.9195785522461,12.550104141235352,12.375432968139648,100.13040161132812,23.99,1.1937355995178223,-20.253644943237305,1454,1745,9.055052757263184,1.9460391998291016,-12.646720886230469
403389.01797164755,73.87733459472656,12.589601516723633,12.483938217163086,100.76165771484375,23.99,3.881436586380005,-19.59180450439453,1451,1707,9.478894233703613,2.459641933441162,-15.102449417114258
403489.01797164755,73.21066284179688,12.62242317199707,12.515708923339844,101.2877197265625,23.99,5.878169059753418,-18.883880615234375,1450,1677,9.470999717712402,2.279940605163574,-14.841836929321289
403589.01797164755,70.38981628417969,12.57645034790039,12.494837760925293,100.55123901367188,23.99,8.502768516540527,-17.593168258666992,1446,1634,9.261131286621094,2.2031562328338623,-15.559857368469238
403689.01797164755,69.72314453125,12.249797821044922,12.464592933654785,95.39578247070312,23.99,9.93976879119873,-16.519067764282227,1453,1608,8.257997512817383,2.1074607372283936,-15.49819278717041
403789.01797164755,66.20665740966797,12.1071138381958,12.373538970947266,93.1864013671875,23.99,11.308568000793457,-15.122255325317383,1447,1576,7.108853340148926,1.318684458732605,-11.968610763549805
403889.01797164755,65.53998565673828,12.674761772155762,12.27877426147461,102.12942504882812,23.99,11.672908782958984,-14.037391662597656,1457,1557,6.775142669677734,1.1045100688934326,-11.415409088134766
403989.01797164755,64.17532348632812,12.41086483001709,12.147012710571289,97.9208984375,23.99,11.687366485595703,-11.766584396362305,1487,1553,5.9441423416137695,0.9853660464286804,-11.333029747009277
404089.01797164755,63.50865936279297,11.774476051330566,12.070452690124512,88.13623046875,23.99,11.2900390625,-10.242236137390137,1502,1562,5.119418621063232,0.8186012506484985,-9.708311080932617
404189.01797164755,62.54899978637695,11.633071899414062,11.936552047729492,86.03201293945312,23.99,10.114927291870117,-7.917256832122803,1536,1565,4.256781578063965,0.512076735496521,-9.305435180664062
404289.01797164755,62.8095703125,12.849824905395508,11.823957443237305,104.97012329101562,23.99,8.87350082397461,-6.885710716247559,1545,1592,3.859893798828125,-0.046321090310811996,-6.802218914031982
404389.01797164755,64.04611206054688,13.022534370422363,11.696840286254883,107.81082153320312,23.99,6.441061973571777,-6.472590446472168,1546,1636,3.6979990005493164,0.007089139427989714,-5.945361614227295
404489.01797164755,64.71278381347656,12.615867614746094,11.651412010192871,101.18252563476562,23.99,4.650669574737549,-6.629684925079346,1537,1660,3.706420421600342,0.11859836429357529,-4.572503566741943
404589.01797164755,68.25627899169922,12.990728378295898,11.65552043914795,107.28482055664062,23.99,2.172755241394043,-7.050478935241699,1529,1706,4.181123733520508,0.20795556902885437,-3.8666157722473145
404689.01797164755,68.9229507446289,12.958843231201172,11.716272354125977,106.75881958007812,23.99,0.8113204836845398,-7.296254634857178,1523,1727,5.290538787841797,0.5141928195953369,-4.356574058532715
404789.01797164755,73.4212646484375,12.81113052368164,11.872318267822266,104.33889770507812,23.99,-0.38970106840133667,-7.925561428070068,1504,1750,6.488227367401123,0.9677005410194397,-5.457071781158447
404889.01797164755,74.08793640136719,12.556694984436035,12.005158424377441,100.235595703125,23.99,-0.5281769633293152,-8.316100120544434,1494,1757,7.834383010864258,1.1965439319610596,-6.422353744506836
404989.01797164755,77.50911712646484,12.648618698120117,12.20964527130127,101.70855712890625,23.99,0.21828098595142365,-8.749555587768555,1478,1752,9.558025360107422,1.374923586845398,-7.894174575805664
405089.01797164755,78.17578887939453,13.509082794189453,12.337818145751953,116.01736450195312,23.99,1.3094466924667358,-8.927148818969727,1470,1739,11.159600257873535,1.7895174026489258,-9.53243637084961
405189.01797164755,79.55039978027344,13.496826171875,12.47956657409668,115.80694580078125,23.99,3.639014482498169,-8.984737396240234,1457,1711,12.603116035461426,2.149801015853882,-11.723758697509766
405289.01797164755,79.39216613769531,13.274277687072754,12.53555965423584,112.01934814453125,23.99,5.529075622558594,-8.81943130493164,1453,1682,13.601420402526855,2.5379140377044678,-13.439555168151855
405389.01797164755,78.32374572753906,13.30540943145752,12.52530288696289,112.54541015625,23.91,8.447400093078613,-8.020293235778809,1454,1646,14.017617225646973,2.5972049236297607,-14.722860336303711
